anecdotes,fichier,anecdotes_reco,boucle_tâche.thisRepN,boucle_tâche.thisTrialN,boucle_tâche.thisN,boucle_tâche.thisIndex,boucle_reco.thisRepN,boucle_reco.thisTrialN,boucle_reco.thisN,boucle_reco.thisIndex,textWelcome.started,Instructions.started,textWelcome.stopped,key_resp.started,key_resp.keys,key_resp.rt,Anecdotes.started,tache_text.started,Validation_button.started,mouse_click.started,tache_text.text,mouse_click.x,mouse_click.y,mouse_click.leftButton,mouse_click.midButton,mouse_click.rightButton,mouse_click.time,mouse_click.clicked_name,feedbacktext.started,feedback_fichier_train.started,feedbacktext.stopped,feedback_fichier_train.stopped,text.started,text.stopped,waiting_screen.started,key_resp_2.started,key_resp_2.keys,key_resp_2.rt,blank.started,blank.stopped,text_3.started,key_resp_3.started,key_resp_3.keys,key_resp_3.rt,Anecdotes_reco.started,reco_text.started,validation_reco.started,mouse_reco.started,reco_text.text,mouse_reco.x,mouse_reco.y,mouse_reco.leftButton,mouse_reco.midButton,mouse_reco.rightButton,mouse_reco.time,mouse_reco.clicked_name,text_2.started,end.started,end.keys,end.rt,participant,session,date,expName,psychopyVersion,frameRate,
,,,,,,,,,,,26.324028,28.32137309999962,28.337890199999492,31.321273599999586,space,32.01755499999945,,,,,,,,,,,,,,,,,,,,,,,,,,,,,,,,,,,,,,,,,,,,,ED3,001,2023-03-17_11h41.47.922,Expérimentation1_SOLO,2022.2.5,60.0084491895809,
"Seulement 2 pays touchent 3 océans, les Etats-Unis et le Canada",FAITS,"Seulement 2 pays touchent 3 océans, les Etats-Unis et le Canada",0,0,0,4,,,,,,,,,,,63.3994732000001,63.3994732000001,63.3994732000001,0.025995699999839417,"seulement 2 pays touchent 3 oéans, les Etats-Unis et le Canada ",[0.004629629629629629],[-0.4009259259259259],[1],[0],[0],[21.76456169999983],['Validation_button'],85.17049680000036,85.17049680000036,90.17039680000016,90.17039680000016,90.17039680000016,90.67343110000002,,,,,,,,,,,,,,,,,,,,,,,,,,,ED3,001,2023-03-17_11h41.47.922,Expérimentation1_SOLO,2022.2.5,60.0084491895809,
Les ongles incarnés sont héréditaires ,DONNEES,Les ongles incarnés sont héréditaires ,0,1,1,7,,,,,,,,,,,90.67343110000002,90.67343110000002,90.67343110000002,0.008458900000732683,"Les ongles incarnés sont héréditaires
","[-0.010185185185185186, 0.007407407407407408]","[-0.38796296296296295, -0.40185185185185185]","[1, 1]","[0, 0]","[0, 0]","[11.38953010000023, 13.940137600000526]",['Validation_button'],104.62033950000023,104.62033950000023,109.62047890000031,109.62047890000031,109.62047890000031,110.13299420000021,,,,,,,,,,,,,,,,,,,,,,,,,,,ED3,001,2023-03-17_11h41.47.922,Expérimentation1_SOLO,2022.2.5,60.0084491895809,
Il y a en moyenne 178 graines de sésames sur le pain du Big Mac de McDonald  ,NOMS,Il y a en moyenne 178 graines de sésames sur le pain du Big Mac de McDonald  ,0,2,2,17,,,,,,,,,,,110.13299420000021,110.13299420000021,110.13299420000021,0.01983690000088245,Il y a en moyenne 178 graines de sésames sur le pain du Big Mac de McDonald,[0.01574074074074074],[-0.4009259259259259],[1],[0],[0],[18.578880000000026],['Validation_button'],128.72063929999968,128.72063929999968,133.7203655000003,133.7203655000003,133.7203655000003,134.2333595,,,,,,,,,,,,,,,,,,,,,,,,,,,ED3,001,2023-03-17_11h41.47.922,Expérimentation1_SOLO,2022.2.5,60.0084491895809,
Le Groenland est l’île la plus grande du monde par sa superficie  ,FAITS,Le Groenland est l’île la plus grande du monde par sa superficie  ,0,3,3,0,,,,,,,,,,,134.2333595,134.2333595,134.2333595,0.019591199999922537,Le Groenland est l'ile la plus grande du monde par sa superficie,"[0.03611111111111111, 0.05, -0.022222222222222223]","[-0.07037037037037037, -0.07407407407407407, -0.3972222222222222]","[1, 1, 1]","[0, 0, 0]","[0, 0, 0]","[14.278620799999771, 15.162098400000104, 19.779429500000333]",['Validation_button'],154.02066689999992,154.02066689999992,159.02054700000008,159.02054700000008,159.02054700000008,159.5246890999997,,,,,,,,,,,,,,,,,,,,,,,,,,,ED3,001,2023-03-17_11h41.47.922,Expérimentation1_SOLO,2022.2.5,60.0084491895809,
Le cœur d’une crevette est dans sa tête  ,POINTS,Le cœur d’une crevette est dans sa tête  ,0,4,4,28,,,,,,,,,,,159.5246890999997,159.5246890999997,159.5246890999997,0.011102000000391854,Le coeur d'une crevette est dans sa tete,[0.002777777777777778],[-0.39351851851851855],[1],[0],[0],[13.053941500000292],['Validation_button'],172.5874490999995,172.5874490999995,177.58730959999957,177.58730959999957,177.58730959999957,178.08726449999995,,,,,,,,,,,,,,,,,,,,,,,,,,,ED3,001,2023-03-17_11h41.47.922,Expérimentation1_SOLO,2022.2.5,60.0084491895809,
La carte de visite d’Al Capone indiquait qu’il était vendeur de meuble d’occasion ,INFOS,La carte de visite d’Al Capone indiquait qu’il était vendeur de meuble d’occasion ,0,5,5,13,,,,,,,,,,,178.08726449999995,178.08726449999995,178.08726449999995,0.007799299999533105,La carte de visite d'Al Capone indiquait qu'il était vendeur de meuble d'occasion,[0.010185185185185186],[-0.4027777777777778],[1],[0],[0],[21.49022319999949],['Validation_button'],199.58745230000022,199.58745230000022,204.58710789999986,204.58710789999986,204.58710789999986,205.09499400000004,,,,,,,,,,,,,,,,,,,,,,,,,,,ED3,001,2023-03-17_11h41.47.922,Expérimentation1_SOLO,2022.2.5,60.0084491895809,
"Tout comme l’empreinte digitale, le cœur est propre à chaque individu et on peut l’identifier grâce à sa signature cardiaque ",NOMS,"Tout comme l’empreinte digitale, le cœur est propre à chaque individu et on peut l’identifier grâce à sa signature cardiaque ",0,6,6,30,,,,,,,,,,,205.09499400000004,205.09499400000004,205.09499400000004,0.01573370000005525,"Tout comme l'empreinte digitale, le coeur propre à chaque individu et on peut l'identifier grace à sa signature",[-0.004629629629629629],[-0.3907407407407407],[1],[0],[0],[23.68330959999912],['Validation_button'],228.78749200000038,228.78749200000038,233.7873658999997,233.7873658999997,233.7873658999997,234.29254469999978,,,,,,,,,,,,,,,,,,,,,,,,,,,ED3,001,2023-03-17_11h41.47.922,Expérimentation1_SOLO,2022.2.5,60.0084491895809,
Il y a eu 25 présidents Français ,DONNEES,Il y a eu 25 présidents Français ,0,7,7,6,,,,,,,,,,,234.29254469999978,234.29254469999978,234.29254469999978,0.012077399999725458,Il y a eu 25 présidents français,"[0.006481481481481481, 0.005555555555555556]","[-0.412962962962963, -0.4]","[1, 1]","[0, 0]","[0, 0]","[8.502321399999346, 10.069503699999586]",['Validation_button'],244.37085560000014,244.37085560000014,249.37064290000035,249.37064290000035,249.37064290000035,249.8806396,,,,,,,,,,,,,,,,,,,,,,,,,,,ED3,001,2023-03-17_11h41.47.922,Expérimentation1_SOLO,2022.2.5,60.0084491895809,
Les élastiques sont plus longs quand ils sont très froids/réfrigérés ,INFOS,Les élastiques sont plus longs quand ils sont très froids/réfrigérés ,0,8,8,11,,,,,,,,,,,249.8806396,249.8806396,249.8806396,0.01706610000019282,Les élastiques sont plus longs quand ils sont très froids/réfrigérés,"[0.019444444444444445, 0.011111111111111112]","[-0.37962962962962965, -0.3972222222222222]","[1, 1]","[0, 0]","[0, 0]","[17.814864599999964, 18.99825039999996]",['Validation_button'],268.88757179999993,268.88757179999993,273.8873469,273.8873469,273.8873469,274.3875852000001,,,,,,,,,,,,,,,,,,,,,,,,,,,ED3,001,2023-03-17_11h41.47.922,Expérimentation1_SOLO,2022.2.5,60.0084491895809,
Les oiseaux bleus ne peuvent pas voir la couleur bleue  ,FAITS,Les oiseaux bleus ne peuvent pas voir la couleur bleue  ,0,9,9,3,,,,,,,,,,,274.3875852000001,274.3875852000001,274.3875852000001,0.006768700000066019,Les oiseaux bleus ne peuvent pas voir la couleur bleue,[0.024074074074074074],[-0.40370370370370373],[1],[0],[0],[15.10767180000039],['Validation_button'],289.50433090000024,289.50433090000024,294.5041917999997,294.5041917999997,294.5041917999997,295.00981260000026,,,,,,,,,,,,,,,,,,,,,,,,,,,ED3,001,2023-03-17_11h41.47.922,Expérimentation1_SOLO,2022.2.5,60.0084491895809,
L’œil d’une autruche est plus gros que son cerveau  ,ITEMS,L’œil d’une autruche est plus gros que son cerveau  ,0,10,10,19,,,,,,,,,,,295.00981260000026,295.00981260000026,295.00981260000026,0.013077900000098452,L'oeil d'une autruche est plus gros que son cerveau,[0.022222222222222223],[-0.40185185185185185],[1],[0],[0],[11.669509999999718],['Validation_button'],306.68761259999974,306.68761259999974,311.6874213000001,311.6874213000001,311.6874213000001,312.1930440999995,,,,,,,,,,,,,,,,,,,,,,,,,,,ED3,001,2023-03-17_11h41.47.922,Expérimentation1_SOLO,2022.2.5,60.0084491895809,
Les frites sont originaires de France et non de Belgique,INFOS,Les frites sont originaires de France et non de Belgique,0,11,11,12,,,,,,,,,,,312.1930440999995,312.1930440999995,312.1930440999995,0.011891799999830255,Les frites sont originaires de France et non de Belgique ,[0.007407407407407408],[-0.39537037037037037],[1],[0],[0],[18.802919300000212],['Validation_button'],331.0043931,331.0043931,336.0044068999996,336.0044068999996,336.0044068999996,336.50823020000007,,,,,,,,,,,,,,,,,,,,,,,,,,,ED3,001,2023-03-17_11h41.47.922,Expérimentation1_SOLO,2022.2.5,60.0084491895809,
La navette Spatiale Columbia s’est désintégrée durant son entrée dans l’atmosphère au-dessus du Texas en février 2003 ,DONNEES,La navette Spatiale Columbia s’est désintégrée durant son entrée dans l’atmosphère au-dessus du Texas en février 2003 ,0,12,12,9,,,,,,,,,,,336.50823020000007,336.50823020000007,336.50823020000007,0.012850000000071304,La navette Spatiale Columbia s'est désintégrée durant son entrée dans l'atmosphère au-dessus du Texas en février 2003,[-0.008333333333333333],[-0.39814814814814814],[1],[0],[0],[27.836062600000332],['Validation_button'],364.3542969,364.3542969,369.35439719999977,369.35439719999977,369.35439719999977,369.86246870000014,,,,,,,,,,,,,,,,,,,,,,,,,,,ED3,001,2023-03-17_11h41.47.922,Expérimentation1_SOLO,2022.2.5,60.0084491895809,
La pyramide de Gizé est la seule des 7 merveilles de l’ancien monde qui existe toujours ,ITEMS,La pyramide de Gizé est la seule des 7 merveilles de l’ancien monde qui existe toujours ,0,13,13,22,,,,,,,,,,,369.86246870000014,369.86246870000014,369.86246870000014,0.016606600000159233,La pyramide de Gizé est la seule des 7 merveilles de l'ancien monde qui existe toujours,[0.004629629629629629],[-0.4009259259259259],[1],[0],[0],[20.364945799999987],['Validation_button'],390.2378510999997,390.2378510999997,395.2376068000003,395.2376068000003,395.2376068000003,395.7432351999996,,,,,,,,,,,,,,,,,,,,,,,,,,,ED3,001,2023-03-17_11h41.47.922,Expérimentation1_SOLO,2022.2.5,60.0084491895809,
La cacahuète est l’un des ingrédients de la dynamite  ,POINTS,La cacahuète est l’un des ingrédients de la dynamite  ,0,14,14,27,,,,,,,,,,,395.7432351999996,395.7432351999996,395.7432351999996,0.0120150000002468,La cacahuète est l'un des ingrédients de la dynamite,[-0.018518518518518517],[-0.4046296296296296],[1],[0],[0],[13.852990899999895],['Validation_button'],409.6045502999996,409.6045502999996,414.6043099999997,414.6043099999997,414.6043099999997,415.1106394999997,,,,,,,,,,,,,,,,,,,,,,,,,,,ED3,001,2023-03-17_11h41.47.922,Expérimentation1_SOLO,2022.2.5,60.0084491895809,
L’océan Atlantique est plus salé que l’océan Pacifique,NOMS,L’océan Atlantique est plus salé que l’océan Pacifique,0,15,15,14,,,,,,,,,,,415.1106394999997,415.1106394999997,415.1106394999997,0.0125012999997125,L'océan Antlantique est plus salé que l'océan Pacifique,[0.006481481481481481],[-0.39444444444444443],[1],[0],[0],[13.336142499999369],['Validation_button'],428.4546097000002,428.4546097000002,433.4544753,433.4544753,433.4544753,433.95989629999985,,,,,,,,,,,,,,,,,,,,,,,,,,,ED3,001,2023-03-17_11h41.47.922,Expérimentation1_SOLO,2022.2.5,60.0084491895809,
Un attentat terroriste a eu lieu dans les métros Londonien en juillet 2005 ,DONNEES,Un attentat terroriste a eu lieu dans les métros Londonien en juillet 2005 ,0,16,16,5,,,,,,,,,,,433.95989629999985,433.95989629999985,433.95989629999985,0.011600400000133959,Un attentat terroriste a eu lieu dans les métros londonien en juillet 2005,"[-0.023148148148148147, -0.018518518518518517]","[-0.3861111111111111, -0.4009259259259259]","[1, 1]","[0, 0]","[0, 0]","[18.669962099999793, 19.736704199999622]",['Validation_button'],453.7044651999995,453.7044651999995,458.7044272000003,458.7044272000003,458.7044272000003,459.2115752999998,,,,,,,,,,,,,,,,,,,,,,,,,,,ED3,001,2023-03-17_11h41.47.922,Expérimentation1_SOLO,2022.2.5,60.0084491895809,
L’Himalaya continue de grandir en raison des collisions des plaques tectoniques ,ITEMS,L’Himalaya continue de grandir en raison des collisions des plaques tectoniques ,0,17,17,21,,,,,,,,,,,459.2115752999998,459.2115752999998,459.2115752999998,0.014010500000040338,L'Himalaya continue de grandir en raison des collisions des plaques tectoniques,[0.018518518518518517],[-0.4101851851851852],[1],[0],[0],[15.850527100000363],['Validation_button'],475.0714829999997,475.0714829999997,480.0711344000001,480.0711344000001,480.0711344000001,480.57882510000036,,,,,,,,,,,,,,,,,,,,,,,,,,,ED3,001,2023-03-17_11h41.47.922,Expérimentation1_SOLO,2022.2.5,60.0084491895809,
Les séparatistes Tchéchènes du Sud de la Russie ont pris en otage une école en septembre 2004 ,POINTS,Les séparatistes Tchéchènes du Sud de la Russie ont pris en otage une école en septembre 2004 ,0,18,18,24,,,,,,,,,,,480.57882510000036,480.57882510000036,480.57882510000036,0.01549070000055508,Les séparatistes Tchétchènes sur Sud de la Russie ont pris en otage une école en septembre 2004,[0.027777777777777776],[-0.4],[1],[0],[0],[20.550308800000494],['Validation_button'],501.13807970000016,501.13807970000016,506.13782360000005,506.13782360000005,506.13782360000005,506.6440849999999,,,,,,,,,,,,,,,,,,,,,,,,,,,ED3,001,2023-03-17_11h41.47.922,Expérimentation1_SOLO,2022.2.5,60.0084491895809,
Une personne perdra environ 18 kilos de peau durant toute sa vie  ,POINTS,Une personne perdra environ 18 kilos de peau durant toute sa vie  ,0,19,19,26,,,,,,,,,,,506.6440849999999,506.6440849999999,506.6440849999999,0.01235499999984313,Une personne perdra environ 18 kilos de peau durant toute sa vie,[-0.008333333333333333],[-0.3972222222222222],[1],[0],[0],[14.502022400000897],['Validation_button'],521.1546528999997,521.1546528999997,526.1547664999998,526.1547664999998,526.1547664999998,526.6587585999996,,,,,,,,,,,,,,,,,,,,,,,,,,,ED3,001,2023-03-17_11h41.47.922,Expérimentation1_SOLO,2022.2.5,60.0084491895809,
L’écriture chinoise comprend plus de 40 000 caractères  ,NOMS,L’écriture chinoise comprend plus de 40 000 caractères  ,0,20,20,18,,,,,,,,,,,526.6587585999996,526.6587585999996,526.6587585999996,0.01123989999996411,L'écriture chinoise comprend plus de 40 000 caractères,[0.006481481481481481],[-0.3962962962962963],[1],[0],[0],[11.621172000000115],['Validation_button'],538.2881761999997,538.2881761999997,543.2878892999997,543.2878892999997,543.2878892999997,543.7962354000001,,,,,,,,,,,,,,,,,,,,,,,,,,,ED3,001,2023-03-17_11h41.47.922,Expérimentation1_SOLO,2022.2.5,60.0084491895809,
La raie manta peut atteindre 9 mètres de long pour environ 2 tonnes ,INFOS,La raie manta peut atteindre 9 mètres de long pour environ 2 tonnes ,0,21,21,31,,,,,,,,,,,543.7962354000001,543.7962354000001,543.7962354000001,0.01396389999990788,La raie manta peut atteindre 9 mètres de long pour environ 2 tonnes,[0.022222222222222223],[-0.3925925925925926],[1],[0],[0],[13.03390969999964],['Validation_button'],556.8381068999997,556.8381068999997,561.8381614999998,561.8381614999998,561.8381614999998,562.3480374000001,,,,,,,,,,,,,,,,,,,,,,,,,,,ED3,001,2023-03-17_11h41.47.922,Expérimentation1_SOLO,2022.2.5,60.0084491895809,
L’indicatif téléphonique international de l’Antarctique est 672 ,INFOS,L’indicatif téléphonique international de l’Antarctique est 672 ,0,22,22,10,,,,,,,,,,,562.3480374000001,562.3480374000001,562.3480374000001,0.014849299999696086,L'indicatif téléphonique international de l'Antarctique est 672,[0.013888888888888888],[-0.3888888888888889],[1],[0],[0],[13.649221399999988],['Validation_button'],576.0049323000003,576.0049323000003,581.0046875999997,581.0046875999997,581.0046875999997,581.5121516999998,,,,,,,,,,,,,,,,,,,,,,,,,,,ED3,001,2023-03-17_11h41.47.922,Expérimentation1_SOLO,2022.2.5,60.0084491895809,
Les concerts Live 8 ont pris place dans les pays du G8 et en Afrique du Sud en juillet 2005 ,NOMS,Les concerts Live 8 ont pris place dans les pays du G8 et en Afrique du Sud en juillet 2005 ,0,23,23,16,,,,,,,,,,,581.5121516999998,581.5121516999998,581.5121516999998,0.013544500000534754,Les concerts live 8 ont pris place dans les pays du G8 et en Afrique du Sud en juillet 2005,[-0.005555555555555556],[-0.40555555555555556],[1],[0],[0],[19.134525599999506],['Validation_button'],600.6550084999999,600.6550084999999,605.6547676999999,605.6547676999999,605.6547676999999,606.1642847000003,,,,,,,,,,,,,,,,,,,,,,,,,,,ED3,001,2023-03-17_11h41.47.922,Expérimentation1_SOLO,2022.2.5,60.0084491895809,
La plus longue composition classique prendrait 639 ans à être interprétée  ,POINTS,La plus longue composition classique prendrait 639 ans à être interprétée  ,0,24,24,25,,,,,,,,,,,606.1642847000003,606.1642847000003,606.1642847000003,0.013887500000237196,La plus longue composition classique prendrait 639 ans à etre interprétée,[0.006481481481481481],[-0.40925925925925927],[1],[0],[0],[17.050602999999683],['Validation_button'],623.2215790999999,623.2215790999999,628.2214985,628.2214985,628.2214985,628.7219576999996,,,,,,,,,,,,,,,,,,,,,,,,,,,ED3,001,2023-03-17_11h41.47.922,Expérimentation1_SOLO,2022.2.5,60.0084491895809,
La Corée du Nord a annoncé avoir conduit un test nucléaire avec succès en octobre 2006  ,ITEMS,La Corée du Nord a annoncé avoir conduit un test nucléaire avec succès en octobre 2006  ,0,25,25,23,,,,,,,,,,,628.7219576999996,628.7219576999996,628.7219576999996,0.006498400000054971,La Corée du Nord a annoncé avoir conduit un test nucléaire avec succès en octobre 2006,[-0.016666666666666666],[-0.40555555555555556],[1],[0],[0],[18.07464329999948],['Validation_button'],646.8051188999998,646.8051188999998,651.8049381000001,651.8049381000001,651.8049381000001,652.3109322999999,,,,,,,,,,,,,,,,,,,,,,,,,,,ED3,001,2023-03-17_11h41.47.922,Expérimentation1_SOLO,2022.2.5,60.0084491895809,
L’Europe est le seul continent sans désert ,DONNEES,L’Europe est le seul continent sans désert ,0,26,26,8,,,,,,,,,,,652.3109322999999,652.3109322999999,652.3109322999999,0.010601600000882172,L'Europe est le seul continent sans désert,[-0.005555555555555556],[-0.39537037037037037],[1],[0],[0],[9.10397920000014],['Validation_button'],661.4218195000003,661.4218195000003,666.4214988000003,666.4214988000003,666.4214988000003,666.9270230000002,,,,,,,,,,,,,,,,,,,,,,,,,,,ED3,001,2023-03-17_11h41.47.922,Expérimentation1_SOLO,2022.2.5,60.0084491895809,
La république dominicaine est le seul pays qui possède un drapeau contenant une bible ,NOMS,La république dominicaine est le seul pays qui possède un drapeau contenant une bible ,0,27,27,15,,,,,,,,,,,666.9270230000002,666.9270230000002,666.9270230000002,0.010746999999355467,La République dominicaine est le seul pays qui possède un drapeau contenant une bible,[-0.018518518518518517],[-0.3962962962962963],[1],[0],[0],[19.270170199999484],['Validation_button'],686.2052702999999,686.2052702999999,691.2049306999997,691.2049306999997,691.2049306999997,691.7143475000003,,,,,,,,,,,,,,,,,,,,,,,,,,,ED3,001,2023-03-17_11h41.47.922,Expérimentation1_SOLO,2022.2.5,60.0084491895809,
On peut reproduire une clé grâce au son qu’elle émet lorsqu’on l’insère dans une serrure ,POINTS,On peut reproduire une clé grâce au son qu’elle émet lorsqu’on l’insère dans une serrure ,0,28,28,29,,,,,,,,,,,691.7143475000003,691.7143475000003,691.7143475000003,0.014589299999897776,On peut reproduire une clé grace au son qu'elle émet lorsqu'on l'insère dans une serrure,[-0.019444444444444445],[-0.40185185185185185],[1],[0],[0],[25.58333870000024],['Validation_button'],717.3052557000001,717.3052557000001,722.3052101000003,722.3052101000003,722.3052101000003,722.8143419999997,,,,,,,,,,,,,,,,,,,,,,,,,,,ED3,001,2023-03-17_11h41.47.922,Expérimentation1_SOLO,2022.2.5,60.0084491895809,
Une vache produit environ 200 000 bouteilles de lait dans sa vie  ,FAITS,Une vache produit environ 200 000 bouteilles de lait dans sa vie  ,0,29,29,2,,,,,,,,,,,722.8143419999997,722.8143419999997,722.8143419999997,0.013493600000401784,Une vache produit environ 200 000 bouteilles de lait dans sa vie,[0.007407407407407408],[-0.39537037037037037],[1],[0],[0],[12.884818300000006],['Validation_button'],735.7052315000001,735.7052315000001,740.7052178000004,740.7052178000004,740.7052178000004,741.2106389999999,,,,,,,,,,,,,,,,,,,,,,,,,,,ED3,001,2023-03-17_11h41.47.922,Expérimentation1_SOLO,2022.2.5,60.0084491895809,
Le tsunami dévastateur en Asie s’est produit en décembre 2004 ,FAITS,Le tsunami dévastateur en Asie s’est produit en décembre 2004 ,0,30,30,1,,,,,,,,,,,741.2106389999999,741.2106389999999,741.2106389999999,0.010638000000653847,Le tsunami dévastateur en Asie s'est produit en décembre 2004,[-0.001851851851851852],[-0.3907407407407407],[1],[0],[0],[15.73680510000031],['Validation_button'],756.9551548999998,756.9551548999998,761.9550909,761.9550909,761.9550909,762.4627959,,,,,,,,,,,,,,,,,,,,,,,,,,,ED3,001,2023-03-17_11h41.47.922,Expérimentation1_SOLO,2022.2.5,60.0084491895809,
Une personne brule plus de calories quand il dort que lorsqu’il regarde la télé  ,ITEMS,Une personne brule plus de calories quand il dort que lorsqu’il regarde la télé  ,0,31,31,20,,,,,,,,,,,762.4627959,762.4627959,762.4627959,0.012973599999895669,Une personne brule plus de calories quand il dort que lorsqu'il regarde la télé,[-0.000925925925925926],[-0.39351851851851855],[1],[0],[0],[16.534510699999373],['Validation_button'],779.0054609999997,779.0054609999997,784.0053104999997,784.0053104999997,784.0053104999997,784.5055206999996,,,,,,,,,,,,,,,,,,,,,,,,,,,ED3,001,2023-03-17_11h41.47.922,Expérimentation1_SOLO,2022.2.5,60.0084491895809,
,,,,,,,,,,,,,,,,,,,,,,,,,,,,,,,,,,,784.5055206999996,787.5056732000003,i,779.3070177999998,,,,,,,,,,,,,,,,,,,,,,,ED3,001,2023-03-17_11h41.47.922,Expérimentation1_SOLO,2022.2.5,60.0084491895809,
,,,,,,,,,,,,,,,,,,,,,,,,,,,,,,,,,,,,,,,1566.8404984999997,1567.34109,1567.34109,1570.3412038999995,space,6.798423399999592,,,,,,,,,,,,,,,,,ED3,001,2023-03-17_11h41.47.922,Expérimentation1_SOLO,2022.2.5,60.0084491895809,
L’océan Atlantique est plus salé que l’océan Pacifique,NOMS,L’océan Atlantique est plus salé que l’océan Pacifique,,,,,0,0,0,14,,,,,,,,,,,,,,,,,,,,,,,,,,,,,1587.6071329999995,1588.1150347000003,,,,,1577.6751980999998,1577.6751980999998,1577.6751980999998,0.026986300000316987,Faits,[-0.012962962962962963],[-0.4027777777777778],[1],[0],[0],[9.92132810000021],['validation_reco'],,,,,ED3,001,2023-03-17_11h41.47.922,Expérimentation1_SOLO,2022.2.5,60.0084491895809,
Une personne brule plus de calories quand il dort que lorsqu’il regarde la télé  ,ITEMS,Une personne brule plus de calories quand il dort que lorsqu’il regarde la télé  ,,,,,0,1,1,20,,,,,,,,,,,,,,,,,,,,,,,,,,,,,1598.5571188000004,1599.0584046000004,,,,,1588.1150347000003,1588.1150347000003,1588.1150347000003,0.013092299999698298,Points,"[-0.016666666666666666, -0.005555555555555556]","[-0.38796296296296295, -0.39444444444444443]","[1, 1]","[0, 0]","[0, 0]","[9.051482699999724, 10.436072700000295]",['validation_reco'],,,,,ED3,001,2023-03-17_11h41.47.922,Expérimentation1_SOLO,2022.2.5,60.0084491895809,
"Tout comme l’empreinte digitale, le cœur est propre à chaque individu et on peut l’identifier grâce à sa signature cardiaque ",NOMS,"Tout comme l’empreinte digitale, le cœur est propre à chaque individu et on peut l’identifier grâce à sa signature cardiaque ",,,,,0,2,2,30,,,,,,,,,,,,,,,,,,,,,,,,,,,,,1606.9738398,1607.4780227,,,,,1599.0584046000004,1599.0584046000004,1599.0584046000004,0.00849000000016531,Points,[0.020370370370370372],[-0.39814814814814814],[1],[0],[0],[7.907111299999997],['validation_reco'],,,,,ED3,001,2023-03-17_11h41.47.922,Expérimentation1_SOLO,2022.2.5,60.0084491895809,
Une vache produit environ 200 000 bouteilles de lait dans sa vie  ,FAITS,Une vache produit environ 200 000 bouteilles de lait dans sa vie  ,,,,,0,3,3,2,,,,,,,,,,,,,,,,,,,,,,,,,,,,,1616.0238551000002,1616.5303762000003,,,,,1607.4780227,1607.4780227,1607.4780227,0.009750100000019302,Info,[0.0],[-0.39351851851851855],[1],[0],[0],[8.537975300000653],['validation_reco'],,,,,ED3,001,2023-03-17_11h41.47.922,Expérimentation1_SOLO,2022.2.5,60.0084491895809,
Les frites sont originaires de France et non de Belgique,INFOS,Les frites sont originaires de France et non de Belgique,,,,,0,4,4,12,,,,,,,,,,,,,,,,,,,,,,,,,,,,,1623.1736859000002,1623.6821332999998,,,,,1616.5303762000003,1616.5303762000003,1616.5303762000003,0.012351000000307977,Fait,[0.018518518518518517],[-0.4027777777777778],[1],[0],[0],[6.636110000000372],['validation_reco'],,,,,ED3,001,2023-03-17_11h41.47.922,Expérimentation1_SOLO,2022.2.5,60.0084491895809,
La pyramide de Gizé est la seule des 7 merveilles de l’ancien monde qui existe toujours ,ITEMS,La pyramide de Gizé est la seule des 7 merveilles de l’ancien monde qui existe toujours ,,,,,0,5,5,22,,,,,,,,,,,,,,,,,,,,,,,,,,,,,1634.5572196000003,1635.0694052999997,,,,,1623.6821332999998,1623.6821332999998,1623.6821332999998,0.014962700000069162,Fait,"[0.032407407407407406, 0.012962962962962963]","[-0.39814814814814814, -0.3972222222222222]","[1, 1]","[0, 0]","[0, 0]","[9.583498799999688, 10.866893299999902]",['validation_reco'],,,,,ED3,001,2023-03-17_11h41.47.922,Expérimentation1_SOLO,2022.2.5,60.0084491895809,
La navette Spatiale Columbia s’est désintégrée durant son entrée dans l’atmosphère au-dessus du Texas en février 2003 ,DONNEES,La navette Spatiale Columbia s’est désintégrée durant son entrée dans l’atmosphère au-dessus du Texas en février 2003 ,,,,,0,6,6,9,,,,,,,,,,,,,,,,,,,,,,,,,,,,,1646.2570548000003,1646.7631502000004,,,,,1635.0694052999997,1635.0694052999997,1635.0694052999997,0.01848840000002383,Noms,[-0.007407407407407408],[-0.39814814814814814],[1],[0],[0],[11.180119199999353],['validation_reco'],,,,,ED3,001,2023-03-17_11h41.47.922,Expérimentation1_SOLO,2022.2.5,60.0084491895809,
La cacahuète est l’un des ingrédients de la dynamite  ,POINTS,La cacahuète est l’un des ingrédients de la dynamite  ,,,,,0,7,7,27,,,,,,,,,,,,,,,,,,,,,,,,,,,,,1653.9072766,1654.4107550999997,,,,,1646.7631502000004,1646.7631502000004,1646.7631502000004,0.011659700000564044,Item,[-0.021296296296296296],[-0.39444444444444443],[1],[0],[0],[7.13676200000009],['validation_reco'],,,,,ED3,001,2023-03-17_11h41.47.922,Expérimentation1_SOLO,2022.2.5,60.0084491895809,
Les ongles incarnés sont héréditaires ,DONNEES,Les ongles incarnés sont héréditaires ,,,,,0,8,8,7,,,,,,,,,,,,,,,,,,,,,,,,,,,,,1662.2739335999995,1662.7765865000001,,,,,1654.4107550999997,1654.4107550999997,1654.4107550999997,0.008314799999425304,Faits,[0.028703703703703703],[-0.4111111111111111],[1],[0],[0],[7.856537700000445],['validation_reco'],,,,,ED3,001,2023-03-17_11h41.47.922,Expérimentation1_SOLO,2022.2.5,60.0084491895809,
Le tsunami dévastateur en Asie s’est produit en décembre 2004 ,FAITS,Le tsunami dévastateur en Asie s’est produit en décembre 2004 ,,,,,0,9,9,1,,,,,,,,,,,,,,,,,,,,,,,,,,,,,1672.2071243,1672.7141776999997,,,,,1662.7765865000001,1662.7765865000001,1662.7765865000001,0.009320299999671988,Nom,[0.027777777777777776],[-0.4027777777777778],[1],[0],[0],[9.422520000000077],['validation_reco'],,,,,ED3,001,2023-03-17_11h41.47.922,Expérimentation1_SOLO,2022.2.5,60.0084491895809,
On peut reproduire une clé grâce au son qu’elle émet lorsqu’on l’insère dans une serrure ,POINTS,On peut reproduire une clé grâce au son qu’elle émet lorsqu’on l’insère dans une serrure ,,,,,0,10,10,29,,,,,,,,,,,,,,,,,,,,,,,,,,,,,1679.5404277999996,1680.0477140000003,,,,,1672.7141776999997,1672.7141776999997,1672.7141776999997,0.013764000000264787,point,"[0.001851851851851852, 0.007407407407407408]","[-0.41203703703703703, -0.4009259259259259]","[1, 1]","[0, 0]","[0, 0]","[5.85152300000027, 6.817542400000093]",['validation_reco'],,,,,ED3,001,2023-03-17_11h41.47.922,Expérimentation1_SOLO,2022.2.5,60.0084491895809,
Une personne perdra environ 18 kilos de peau durant toute sa vie  ,POINTS,Une personne perdra environ 18 kilos de peau durant toute sa vie  ,,,,,0,11,11,26,,,,,,,,,,,,,,,,,,,,,,,,,,,,,1691.7071517000004,1692.2157930000003,,,,,1680.0477140000003,1680.0477140000003,1680.0477140000003,0.013432000000648259,Fait,[0.008333333333333333],[-0.39814814814814814],[1],[0],[0],[11.651850600000216],['validation_reco'],,,,,ED3,001,2023-03-17_11h41.47.922,Expérimentation1_SOLO,2022.2.5,60.0084491895809,
La Corée du Nord a annoncé avoir conduit un test nucléaire avec succès en octobre 2006  ,ITEMS,La Corée du Nord a annoncé avoir conduit un test nucléaire avec succès en octobre 2006  ,,,,,0,12,12,23,,,,,,,,,,,,,,,,,,,,,,,,,,,,,1703.4740413,1703.9826498000002,,,,,1692.2157930000003,1692.2157930000003,1692.2157930000003,0.01568829999996524,Nom,[0.003703703703703704],[-0.4101851851851852],[1],[0],[0],[11.25093680000009],['validation_reco'],,,,,ED3,001,2023-03-17_11h41.47.922,Expérimentation1_SOLO,2022.2.5,60.0084491895809,
La république dominicaine est le seul pays qui possède un drapeau contenant une bible ,NOMS,La république dominicaine est le seul pays qui possède un drapeau contenant une bible ,,,,,0,13,13,15,,,,,,,,,,,,,,,,,,,,,,,,,,,,,1715.9239005,1716.4240385000003,,,,,1703.9826498000002,1703.9826498000002,1703.9826498000002,0.014141300000119372,Nom,[0.0],[-0.4027777777777778],[1],[0],[0],[11.933972099999664],['validation_reco'],,,,,ED3,001,2023-03-17_11h41.47.922,Expérimentation1_SOLO,2022.2.5,60.0084491895809,
L’œil d’une autruche est plus gros que son cerveau  ,ITEMS,L’œil d’une autruche est plus gros que son cerveau  ,,,,,0,14,14,19,,,,,,,,,,,,,,,,,,,,,,,,,,,,,1723.1239208999996,1723.6293728,,,,,1716.4240385000003,1716.4240385000003,1716.4240385000003,0.006924000000253727,Point,[-0.027777777777777776],[-0.3925925925925926],[1],[0],[0],[6.691406299999471],['validation_reco'],,,,,ED3,001,2023-03-17_11h41.47.922,Expérimentation1_SOLO,2022.2.5,60.0084491895809,
Un attentat terroriste a eu lieu dans les métros Londonien en juillet 2005 ,DONNEES,Un attentat terroriste a eu lieu dans les métros Londonien en juillet 2005 ,,,,,0,15,15,5,,,,,,,,,,,,,,,,,,,,,,,,,,,,,1729.3905686999997,1729.8994789999997,,,,,1723.6293728,1723.6293728,1723.6293728,0.011986900000010792,Fait,[-0.005555555555555556],[-0.4083333333333333],[1],[0],[0],[5.753674100000353],['validation_reco'],,,,,ED3,001,2023-03-17_11h41.47.922,Expérimentation1_SOLO,2022.2.5,60.0084491895809,
Les concerts Live 8 ont pris place dans les pays du G8 et en Afrique du Sud en juillet 2005 ,NOMS,Les concerts Live 8 ont pris place dans les pays du G8 et en Afrique du Sud en juillet 2005 ,,,,,0,16,16,16,,,,,,,,,,,,,,,,,,,,,,,,,,,,,1736.3240643,1736.8269455999998,,,,,1729.8994789999997,1729.8994789999997,1729.8994789999997,0.014674600000034843,Noms,"[-0.025925925925925925, -0.017592592592592594]","[-0.3851851851851852, -0.39166666666666666]","[1, 1]","[0, 0]","[0, 0]","[5.867087499999798, 6.4167395000004035]",['validation_reco'],,,,,ED3,001,2023-03-17_11h41.47.922,Expérimentation1_SOLO,2022.2.5,60.0084491895809,
Il y a eu 25 présidents Français ,DONNEES,Il y a eu 25 présidents Français ,,,,,0,17,17,6,,,,,,,,,,,,,,,,,,,,,,,,,,,,,1744.4074084000003,1744.9121232999996,,,,,1736.8269455999998,1736.8269455999998,1736.8269455999998,0.009447999999792955,Donnée,[0.000925925925925926],[-0.3990740740740741],[1],[0],[0],[7.573033199999372],['validation_reco'],,,,,ED3,001,2023-03-17_11h41.47.922,Expérimentation1_SOLO,2022.2.5,60.0084491895809,
Les oiseaux bleus ne peuvent pas voir la couleur bleue  ,FAITS,Les oiseaux bleus ne peuvent pas voir la couleur bleue  ,,,,,0,18,18,3,,,,,,,,,,,,,,,,,,,,,,,,,,,,,1749.6241578,1750.1271723,,,,,1744.9121232999996,1744.9121232999996,1744.9121232999996,0.011018799999874318,Fait,[-0.011111111111111112],[-0.4111111111111111],[1],[0],[0],[4.704151599999932],['validation_reco'],,,,,ED3,001,2023-03-17_11h41.47.922,Expérimentation1_SOLO,2022.2.5,60.0084491895809,
L’Europe est le seul continent sans désert ,DONNEES,L’Europe est le seul continent sans désert ,,,,,0,19,19,8,,,,,,,,,,,,,,,,,,,,,,,,,,,,,1755.3574933,1755.8655965999997,,,,,1750.1271723,1750.1271723,1750.1271723,0.00821670000004815,Fait,[-0.019444444444444445],[-0.39351851851851855],[1],[0],[0],[5.2239989999998215],['validation_reco'],,,,,ED3,001,2023-03-17_11h41.47.922,Expérimentation1_SOLO,2022.2.5,60.0084491895809,
L’indicatif téléphonique international de l’Antarctique est 672 ,INFOS,L’indicatif téléphonique international de l’Antarctique est 672 ,,,,,0,20,20,10,,,,,,,,,,,,,,,,,,,,,,,,,,,,,1764.6239888,1765.1283077999997,,,,,1755.8655965999997,1755.8655965999997,1755.8655965999997,0.013682800000424322,Item,[-0.025925925925925925],[-0.3990740740740741],[1],[0],[0],[8.751094100000046],['validation_reco'],,,,,ED3,001,2023-03-17_11h41.47.922,Expérimentation1_SOLO,2022.2.5,60.0084491895809,
Le cœur d’une crevette est dans sa tête  ,POINTS,Le cœur d’une crevette est dans sa tête  ,,,,,0,21,21,28,,,,,,,,,,,,,,,,,,,,,,,,,,,,,1770.3575505,1770.8576826999997,,,,,1765.1283077999997,1765.1283077999997,1765.1283077999997,0.010431100000459992,point,[-0.022222222222222223],[-0.40185185185185185],[1],[0],[0],[5.222567199999503],['validation_reco'],,,,,ED3,001,2023-03-17_11h41.47.922,Expérimentation1_SOLO,2022.2.5,60.0084491895809,
Les séparatistes Tchéchènes du Sud de la Russie ont pris en otage une école en septembre 2004 ,POINTS,Les séparatistes Tchéchènes du Sud de la Russie ont pris en otage une école en septembre 2004 ,,,,,0,22,22,24,,,,,,,,,,,,,,,,,,,,,,,,,,,,,1776.5075250999998,1777.0119117000004,,,,,1770.8576826999997,1770.8576826999997,1770.8576826999997,0.0074915999994118465,Noms,[-0.021296296296296296],[-0.4027777777777778],[1],[0],[0],[5.641127300000335],['validation_reco'],,,,,ED3,001,2023-03-17_11h41.47.922,Expérimentation1_SOLO,2022.2.5,60.0084491895809,
L’Himalaya continue de grandir en raison des collisions des plaques tectoniques ,ITEMS,L’Himalaya continue de grandir en raison des collisions des plaques tectoniques ,,,,,0,23,23,21,,,,,,,,,,,,,,,,,,,,,,,,,,,,,1784.9242170999996,1785.4311514,,,,,1777.0119117000004,1777.0119117000004,1777.0119117000004,0.010445199999594479,Nom,[-0.021296296296296296],[-0.4027777777777778],[1],[0],[0],[7.904172800000197],['validation_reco'],,,,,ED3,001,2023-03-17_11h41.47.922,Expérimentation1_SOLO,2022.2.5,60.0084491895809,
La raie manta peut atteindre 9 mètres de long pour environ 2 tonnes ,INFOS,La raie manta peut atteindre 9 mètres de long pour environ 2 tonnes ,,,,,0,24,24,31,,,,,,,,,,,,,,,,,,,,,,,,,,,,,1792.4408897000003,1792.9408187999998,,,,,1785.4311514,1785.4311514,1785.4311514,0.012787500000740692,Point,[-0.028703703703703703],[-0.3962962962962963],[1],[0],[0],[7.00238679999984],['validation_reco'],,,,,ED3,001,2023-03-17_11h41.47.922,Expérimentation1_SOLO,2022.2.5,60.0084491895809,
Le Groenland est l’île la plus grande du monde par sa superficie  ,FAITS,Le Groenland est l’île la plus grande du monde par sa superficie  ,,,,,0,25,25,0,,,,,,,,,,,,,,,,,,,,,,,,,,,,,1802.4574462,1802.9576770000003,,,,,1792.9408187999998,1792.9408187999998,1792.9408187999998,0.008281399999759742,Nom,[0.023148148148148147],[-0.40370370370370373],[1],[0],[0],[9.506737599999724],['validation_reco'],,,,,ED3,001,2023-03-17_11h41.47.922,Expérimentation1_SOLO,2022.2.5,60.0084491895809,
La carte de visite d’Al Capone indiquait qu’il était vendeur de meuble d’occasion ,INFOS,La carte de visite d’Al Capone indiquait qu’il était vendeur de meuble d’occasion ,,,,,0,26,26,13,,,,,,,,,,,,,,,,,,,,,,,,,,,,,1814.0576769999998,1814.5639884000002,,,,,1802.9576770000003,1802.9576770000003,1802.9576770000003,0.008766500000092492,Fait,[0.023148148148148147],[-0.40370370370370373],[1],[0],[0],[11.089621099999931],['validation_reco'],,,,,ED3,001,2023-03-17_11h41.47.922,Expérimentation1_SOLO,2022.2.5,60.0084491895809,
La plus longue composition classique prendrait 639 ans à être interprétée  ,POINTS,La plus longue composition classique prendrait 639 ans à être interprétée  ,,,,,0,27,27,25,,,,,,,,,,,,,,,,,,,,,,,,,,,,,1822.9574832999997,1823.4667981000002,,,,,1814.5639884000002,1814.5639884000002,1814.5639884000002,0.013718799999878684,Fait,[0.014814814814814815],[-0.4],[1],[0],[0],[8.386136299999635],['validation_reco'],,,,,ED3,001,2023-03-17_11h41.47.922,Expérimentation1_SOLO,2022.2.5,60.0084491895809,
Les élastiques sont plus longs quand ils sont très froids/réfrigérés ,INFOS,Les élastiques sont plus longs quand ils sont très froids/réfrigérés ,,,,,0,28,28,11,,,,,,,,,,,,,,,,,,,,,,,,,,,,,1829.7575172999996,1830.2699523,,,,,1823.4667981000002,1823.4667981000002,1823.4667981000002,0.01449140000022453,fait,[0.014814814814814815],[-0.4],[1],[0],[0],[6.282734700000219],['validation_reco'],,,,,ED3,001,2023-03-17_11h41.47.922,Expérimentation1_SOLO,2022.2.5,60.0084491895809,
"Seulement 2 pays touchent 3 océans, les Etats-Unis et le Canada",FAITS,"Seulement 2 pays touchent 3 océans, les Etats-Unis et le Canada",,,,,0,29,29,4,,,,,,,,,,,,,,,,,,,,,,,,,,,,,1842.4411195000002,1842.9464429,,,,,1830.2699523,1830.2699523,1830.2699523,0.017654199999924458,donnés,[0.014814814814814815],[-0.4],[1],[0],[0],[12.164340300000731],['validation_reco'],,,,,ED3,001,2023-03-17_11h41.47.922,Expérimentation1_SOLO,2022.2.5,60.0084491895809,
L’écriture chinoise comprend plus de 40 000 caractères  ,NOMS,L’écriture chinoise comprend plus de 40 000 caractères  ,,,,,0,30,30,18,,,,,,,,,,,,,,,,,,,,,,,,,,,,,1846.9575447999996,1847.4656610000002,,,,,1842.9464429,1842.9464429,1842.9464429,0.0111575000000812,Nom,[0.016666666666666666],[-0.4009259259259259],[1],[0],[0],[4.003463000000011],['validation_reco'],,,,,ED3,001,2023-03-17_11h41.47.922,Expérimentation1_SOLO,2022.2.5,60.0084491895809,
Il y a en moyenne 178 graines de sésames sur le pain du Big Mac de McDonald  ,NOMS,Il y a en moyenne 178 graines de sésames sur le pain du Big Mac de McDonald  ,,,,,0,31,31,17,,,,,,,,,,,,,,,,,,,,,,,,,,,,,1856.2408985000002,1856.7413827,,,,,1847.4656610000002,1847.4656610000002,1847.4656610000002,0.013772300000709947,données,[0.016666666666666666],[-0.40370370370370373],[1],[0],[0],[8.767948400000023],['validation_reco'],,,,,ED3,001,2023-03-17_11h41.47.922,Expérimentation1_SOLO,2022.2.5,60.0084491895809,
,,,,,,,,,,,,,,,,,,,,,,,,,,,,,,,,,,,,,,,,,,,,,,,,,,,,,,,,,1856.7413827,1856.7413827,i,9.815048299999944,ED3,001,2023-03-17_11h41.47.922,Expérimentation1_SOLO,2022.2.5,60.0084491895809,
