anecdotes,fichier,anecdotes_reco,boucle_tâche.thisRepN,boucle_tâche.thisTrialN,boucle_tâche.thisN,boucle_tâche.thisIndex,boucle_reco.thisRepN,boucle_reco.thisTrialN,boucle_reco.thisN,boucle_reco.thisIndex,textWelcome.started,Instructions.started,textWelcome.stopped,key_resp.started,key_resp.keys,key_resp.rt,Anecdotes.started,tache_text.started,Validation_button.started,mouse_click.started,tache_text.text,mouse_click.x,mouse_click.y,mouse_click.leftButton,mouse_click.midButton,mouse_click.rightButton,mouse_click.time,mouse_click.clicked_name,feedbacktext.started,feedback_fichier_train.started,feedbacktext.stopped,feedback_fichier_train.stopped,text.started,text.stopped,waiting_screen.started,key_resp_2.started,key_resp_2.keys,key_resp_2.rt,blank.started,blank.stopped,text_3.started,key_resp_3.started,key_resp_3.keys,key_resp_3.rt,Anecdotes_reco.started,reco_text.started,validation_reco.started,mouse_reco.started,reco_text.text,mouse_reco.x,mouse_reco.y,mouse_reco.leftButton,mouse_reco.midButton,mouse_reco.rightButton,mouse_reco.time,mouse_reco.clicked_name,text_2.started,end.started,end.keys,end.rt,participant,session,date,expName,psychopyVersion,frameRate,
,,,,,,,,,,,18.071805499959737,20.055865899892524,20.072772399988025,23.055663299979642,space,6.0093710999935865,,,,,,,,,,,,,,,,,,,,,,,,,,,,,,,,,,,,,,,,,,,,,MG2,001,2023-03-17_11h05.34.426,Expérimentation1_SOLO,2022.2.5,59.97681302492252,
Les ongles incarnés sont héréditaires ,DONNEES,Les ongles incarnés sont héréditaires ,0,0,0,7,,,,,,,,,,,29.121765999821946,29.121765999821946,29.121765999821946,0.030359000200405717, LES ONGLES ICARNES sont hereditaires,"[-0.014814814814814815, 0.004629629629629629]","[0.1361111111111111, -0.39537037037037037]","[1, 1]","[0, 0]","[0, 0]","[21.353864199947566, 23.002448600018397]",['Validation_button'],52.1218126998283,52.1218126998283,57.122026999946684,57.122026999946684,57.122026999946684,57.63843139982782,,,,,,,,,,,,,,,,,,,,,,,,,,,MG2,001,2023-03-17_11h05.34.426,Expérimentation1_SOLO,2022.2.5,59.97681302492252,
L’Himalaya continue de grandir en raison des collisions des plaques tectoniques.,ITEMS,L’Himalaya continue de grandir en raison des collisions des plaques tectoniques.,0,1,1,21,,,,,,,,,,,57.63843139982782,57.63843139982782,57.63843139982782,0.0183228999376297,l' himalaya continue  de grandir en raison des collisions des plaques tectoniques,[-0.002777777777777778],[-0.39444444444444443],[1],[0],[0],[49.67821209994145],['Validation_button'],107.3211933998391,107.3211933998391,112.32149220001884,112.32149220001884,112.32149220001884,112.82115759979934,,,,,,,,,,,,,,,,,,,,,,,,,,,MG2,001,2023-03-17_11h05.34.426,Expérimentation1_SOLO,2022.2.5,59.97681302492252,
Les oiseaux bleus ne peuvent pas voir la couleur bleue. ,FAITS,Les oiseaux bleus ne peuvent pas voir la couleur bleue. ,0,2,2,3,,,,,,,,,,,112.82115759979934,112.82115759979934,112.82115759979934,0.006706899963319302,les oiseaux bleus ne peuvent pas voir la couleur bleue,[-0.024074074074074074],[-0.4],[1],[0],[0],[37.65762629988603],['Validation_button'],150.48752339999191,150.48752339999191,155.48780009988695,155.48780009988695,155.48780009988695,156.00376949994825,,,,,,,,,,,,,,,,,,,,,,,,,,,MG2,001,2023-03-17_11h05.34.426,Expérimentation1_SOLO,2022.2.5,59.97681302492252,
La république dominicaine est le seul pays qui possède un drapeau contenant une bible.,NOMS,La république dominicaine est le seul pays qui possède un drapeau contenant une bible.,0,3,3,15,,,,,,,,,,,156.00376949994825,156.00376949994825,156.00376949994825,0.018830500077456236,la republique dominicaine est le seul pays qui possede un drapeau contenant une bible,[-0.006481481481481481],[-0.40185185185185185],[1],[0],[0],[64.22920670011081],['Validation_button'],220.2365386998281,220.2365386998281,225.23696829983965,225.23696829983965,225.23696829983965,225.75302339997143,,,,,,,,,,,,,,,,,,,,,,,,,,,MG2,001,2023-03-17_11h05.34.426,Expérimentation1_SOLO,2022.2.5,59.97681302492252,
La cacahuète est l’un des ingrédients de la dynamite. ,POINTS,La cacahuète est l’un des ingrédients de la dynamite. ,0,4,4,27,,,,,,,,,,,225.75302339997143,225.75302339997143,225.75302339997143,0.01588559988886118,la cacahuette est une des ingredients de la dynamite,[0.0],[-0.3925925925925926],[1],[0],[0],[29.948589500039816],['Validation_button'],255.70318089984357,255.70318089984357,260.7030331999995,260.7030331999995,260.7030331999995,261.2192100000102,,,,,,,,,,,,,,,,,,,,,,,,,,,MG2,001,2023-03-17_11h05.34.426,Expérimentation1_SOLO,2022.2.5,59.97681302492252,
La plus longue composition classique prendrait 639 ans à être interprétée. ,POINTS,La plus longue composition classique prendrait 639 ans à être interprétée. ,0,5,5,25,,,,,,,,,,,261.2192100000102,261.2192100000102,261.2192100000102,0.010521899908781052,la plus longue composition classique prendrait 639 ans a etre interpretee,[0.017592592592592594],[-0.4064814814814815],[1],[0],[0],[52.65281550004147],['Validation_button'],313.8688119999133,313.8688119999133,318.8694511000067,318.8694511000067,318.8694511000067,319.38569369981997,,,,,,,,,,,,,,,,,,,,,,,,,,,MG2,001,2023-03-17_11h05.34.426,Expérimentation1_SOLO,2022.2.5,59.97681302492252,
La Corée du Nord a annoncé avoir conduit un test nucléaire avec succès en octobre 2006. ,ITEMS,La Corée du Nord a annoncé avoir conduit un test nucléaire avec succès en octobre 2006. ,0,6,6,23,,,,,,,,,,,319.38569369981997,319.38569369981997,319.38569369981997,0.023055800003930926,la coree a annonce avoir conduit un test nucleaire avec succes en octobre 2006,[-0.012037037037037037],[-0.3907407407407407],[1],[0],[0],[49.578932400094345],['Validation_button'],368.97095059999265,368.97095059999265,,,373.985317699844,,,,,,,,,,,,,,,,,,,,,,,,,,,,MG2,001,2023-03-17_11h05.34.426,Expérimentation1_SOLO,2022.2.5,59.97681302492252,
Les frites sont originaires de France et non de Belgique,INFOS,Les frites sont originaires de France et non de Belgique,0,7,7,12,,,,,,,,,,,374.48495669988915,374.48495669988915,374.48495669988915,0.01906550000421703,les frites sont originaires de france et non de belgique,[0.001851851851851852],[-0.4009259259259259],[1],[0],[0],[35.25874389987439],['Validation_button'],409.75140389986336,409.75140389986336,414.75176559994,414.75176559994,414.75176559994,415.2684963999782,,,,,,,,,,,,,,,,,,,,,,,,,,,MG2,001,2023-03-17_11h05.34.426,Expérimentation1_SOLO,2022.2.5,59.97681302492252,
Le Groenland est l’île la plus grande du monde par sa superficie. ,FAITS,Le Groenland est l’île la plus grande du monde par sa superficie. ,0,8,8,0,,,,,,,,,,,415.2684963999782,415.2684963999782,415.2684963999782,0.02286570006981492,le groenland est l'Ile la plus grande par sa superfice,[0.022222222222222223],[-0.3990740740740741],[1],[0],[0],[47.07493490003981],['Validation_button'],462.35064879991114,462.35064879991114,467.35113570000976,467.35113570000976,467.35113570000976,467.8673578999005,,,,,,,,,,,,,,,,,,,,,,,,,,,MG2,001,2023-03-17_11h05.34.426,Expérimentation1_SOLO,2022.2.5,59.97681302492252,
L’Europe est le seul continent sans désert ,DONNEES,L’Europe est le seul continent sans désert ,0,9,9,8,,,,,,,,,,,467.8673578999005,467.8673578999005,467.8673578999005,0.014122399967163801,l'europe est le seul continent sans desert,[0.007407407407407408],[-0.40185185185185185],[1],[0],[0],[24.483402400044724],['Validation_button'],492.3503808998503,492.3503808998503,497.3507140998263,497.3507140998263,497.3507140998263,497.86687599984,,,,,,,,,,,,,,,,,,,,,,,,,,,MG2,001,2023-03-17_11h05.34.426,Expérimentation1_SOLO,2022.2.5,59.97681302492252,
Une vache produit environ 200 000 bouteilles de lait dans sa vie. ,FAITS,Une vache produit environ 200 000 bouteilles de lait dans sa vie. ,0,10,10,2,,,,,,,,,,,497.86687599984,497.86687599984,497.86687599984,0.015141400042921305,une vache produit environ 200000 boutelles de lait dans sa vie,[0.012037037037037037],[-0.40185185185185185],[1],[0],[0],[44.966710699955],['Validation_button'],542.8331186999567,542.8331186999567,547.8336742999963,547.8336742999963,547.8336742999963,548.349780399818,,,,,,,,,,,,,,,,,,,,,,,,,,,MG2,001,2023-03-17_11h05.34.426,Expérimentation1_SOLO,2022.2.5,59.97681302492252,
L’indicatif téléphonique international de l’Antarctique est 672 ,INFOS,L’indicatif téléphonique international de l’Antarctique est 672 ,0,11,11,10,,,,,,,,,,,548.349780399818,548.349780399818,548.349780399818,0.01898570009507239,l'indicatif nationale de l'Antartique est 672,[0.001851851851851852],[-0.40370370370370373],[1],[0],[0],[39.14560889988206],['Validation_button'],587.5161261998583,587.5161261998583,,,592.5163228998426,,,,,,,,,,,,,,,,,,,,,,,,,,,,MG2,001,2023-03-17_11h05.34.426,Expérimentation1_SOLO,2022.2.5,59.97681302492252,
L’œil d’une autruche est plus gros que son cerveau. ,ITEMS,L’œil d’une autruche est plus gros que son cerveau. ,0,12,12,19,,,,,,,,,,,593.0326634999365,593.0326634999365,593.0326634999365,0.026996599975973368,l'oeil d'une atruche est plus gros que son cerveau,"[0.06388888888888888, -0.004629629629629629]","[-0.09166666666666666, -0.39351851851851855]","[1, 1]","[0, 0]","[0, 0]","[21.40110870008357, 42.116904800059274]",['Validation_button'],635.149056899827,635.149056899827,640.1487266998738,640.1487266998738,640.1487266998738,640.6654672999866,,,,,,,,,,,,,,,,,,,,,,,,,,,MG2,001,2023-03-17_11h05.34.426,Expérimentation1_SOLO,2022.2.5,59.97681302492252,
Il y a eu 25 présidents Français ,DONNEES,Il y a eu 25 présidents Français ,0,13,13,6,,,,,,,,,,,640.6654672999866,640.6654672999866,640.6654672999866,0.019352899864315987,il y a eu 25 presidents francais,[-0.000925925925925926],[-0.4027777777777778],[1],[0],[0],[21.96091299992986],['Validation_button'],662.6319611999206,662.6319611999206,667.6321731000207,667.6321731000207,667.6321731000207,668.1485896999948,,,,,,,,,,,,,,,,,,,,,,,,,,,MG2,001,2023-03-17_11h05.34.426,Expérimentation1_SOLO,2022.2.5,59.97681302492252,
Le cœur d’une crevette est dans sa tête. ,POINTS,Le cœur d’une crevette est dans sa tête. ,0,14,14,28,,,,,,,,,,,668.1485896999948,668.1485896999948,668.1485896999948,0.010778000112622976,le coeur d'une crevette est dans sa tete,[0.011111111111111112],[-0.3907407407407407],[1],[0],[0],[20.93888400006108],['Validation_button'],689.0813312998507,689.0813312998507,694.0819287998602,694.0819287998602,694.0819287998602,694.5981642999686,,,,,,,,,,,,,,,,,,,,,,,,,,,MG2,001,2023-03-17_11h05.34.426,Expérimentation1_SOLO,2022.2.5,59.97681302492252,
Il y a en moyenne 178 graines de sésames sur le pain du Big Mac de McDonald. ,NOMS,Il y a en moyenne 178 graines de sésames sur le pain du Big Mac de McDonald. ,0,15,15,17,,,,,,,,,,,694.5981642999686,694.5981642999686,694.5981642999686,0.01990890013985336,il y a en moyenne 178 graines de sesame sur le pain du big mac de mcdonald,[0.003703703703703704],[-0.3962962962962963],[1],[0],[0],[55.74345920002088],['Validation_button'],750.3473997998517,750.3473997998517,755.3478786998894,755.3478786998894,755.3478786998894,755.8640727999154,,,,,,,,,,,,,,,,,,,,,,,,,,,MG2,001,2023-03-17_11h05.34.426,Expérimentation1_SOLO,2022.2.5,59.97681302492252,
La navette Spatiale Columbia s’est désintégrée durant son entrée dans l’atmosphère au-dessus du Texas en février 2003 ,DONNEES,La navette Spatiale Columbia s’est désintégrée durant son entrée dans l’atmosphère au-dessus du Texas en février 2003 ,0,16,16,9,,,,,,,,,,,755.8640727999154,755.8640727999154,755.8640727999154,0.021522799972444773,la navette spatiale columbia s'est desintegree durant son entree dans l'atmosphere  au-dessus du texas en fevrier 2003,[-0.001851851851851852],[-0.4009259259259259],[1],[0],[0],[78.67589890002273],['Validation_button'],834.5467666999903,834.5467666999903,839.5468576999847,839.5468576999847,839.5468576999847,840.0633452998009,,,,,,,,,,,,,,,,,,,,,,,,,,,MG2,001,2023-03-17_11h05.34.426,Expérimentation1_SOLO,2022.2.5,59.97681302492252,
Les élastiques sont plus longs quand ils sont très froids/réfrigérés.,INFOS,Les élastiques sont plus longs quand ils sont très froids/réfrigérés.,0,17,17,11,,,,,,,,,,,840.0633452998009,840.0633452998009,840.0633452998009,0.018488300032913685,les elastiques sont plus longs quand ils sont tres froids refrigeres,[0.018518518518518517],[-0.3925925925925926],[1],[0],[0],[49.678546299925074],['Validation_button'],889.7459002998658,889.7459002998658,894.7465179997962,894.7465179997962,894.7465179997962,895.2627488998696,,,,,,,,,,,,,,,,,,,,,,,,,,,MG2,001,2023-03-17_11h05.34.426,Expérimentation1_SOLO,2022.2.5,59.97681302492252,
La carte de visite d’Al Capone indiquait qu’il était vendeur de meuble d’occasion.,INFOS,La carte de visite d’Al Capone indiquait qu’il était vendeur de meuble d’occasion.,0,18,18,13,,,,,,,,,,,895.2627488998696,895.2627488998696,895.2627488998696,0.016717800172045827,la carte de visite d'alcapone indiquait qu'il etait vendeur de meuble d'occasion,[-0.017592592592592594],[-0.3925925925925926],[1],[0],[0],[55.88085169997066],['Validation_button'],951.1453949999996,951.1453949999996,956.1456965999678,956.1456965999678,956.1456965999678,956.6618802999146,,,,,,,,,,,,,,,,,,,,,,,,,,,MG2,001,2023-03-17_11h05.34.426,Expérimentation1_SOLO,2022.2.5,59.97681302492252,
On peut reproduire une clé grâce au son qu’elle émet lorsqu’on l’insère dans une serrure.,POINTS,On peut reproduire une clé grâce au son qu’elle émet lorsqu’on l’insère dans une serrure.,0,19,19,29,,,,,,,,,,,956.6618802999146,956.6618802999146,956.6618802999146,0.018772199982777238,on peut reproduire une cle grace au son qu'elle emet lorsqu'on l'insere dans une serrure,[-0.008333333333333333],[-0.4064814814814815],[1],[0],[0],[70.22746490011923],['Validation_button'],1026.8945220999885,1026.8945220999885,1031.8949545999058,1031.8949545999058,1031.8949545999058,1032.4112017999869,,,,,,,,,,,,,,,,,,,,,,,,,,,MG2,001,2023-03-17_11h05.34.426,Expérimentation1_SOLO,2022.2.5,59.97681302492252,
La pyramide de Gizé est la seule des 7 merveilles de l’ancien monde qui existe toujours.,ITEMS,La pyramide de Gizé est la seule des 7 merveilles de l’ancien monde qui existe toujours.,0,20,20,22,,,,,,,,,,,1032.4112017999869,1032.4112017999869,1032.4112017999869,0.0190654001198709,la pyramide degise est la seule des 7 merveilles de l' ancien monde qui existetoujours,[0.022222222222222223],[-0.39814814814814814],[1],[0],[0],[70.98032859992236],['Validation_button'],1103.396190200001,1103.396190200001,1108.3961312000174,1108.3961312000174,1108.3961312000174,1108.9102953998372,,,,,,,,,,,,,,,,,,,,,,,,,,,MG2,001,2023-03-17_11h05.34.426,Expérimentation1_SOLO,2022.2.5,59.97681302492252,
La raie manta peut atteindre 9 mètres de long pour environ 2 tonnes.,INFOS,La raie manta peut atteindre 9 mètres de long pour environ 2 tonnes.,0,21,21,31,,,,,,,,,,,1108.9102953998372,1108.9102953998372,1108.9102953998372,0.013653199886903167,la raie manta peut atteindre 9 metres de long pour environ 2 tonnes,[0.008333333333333333],[-0.39814814814814814],[1],[0],[0],[52.59723099996336],['Validation_button'],1161.5099610998295,1161.5099610998295,1166.5100878998637,1166.5100878998637,1166.5100878998637,1167.026523299981,,,,,,,,,,,,,,,,,,,,,,,,,,,MG2,001,2023-03-17_11h05.34.426,Expérimentation1_SOLO,2022.2.5,59.97681302492252,
Une personne brule plus de calories quand il dort que lorsqu’il regarde la télé. ,ITEMS,Une personne brule plus de calories quand il dort que lorsqu’il regarde la télé. ,0,22,22,20,,,,,,,,,,,1167.026523299981,1167.026523299981,1167.026523299981,0.016019599977880716,une personne brule plus de calories quand il dors que lorsqu' il regarde la tele,[0.003703703703703704],[-0.40370370370370373],[1],[0],[0],[62.30139260017313],['Validation_button'],1229.328888699878,1229.328888699878,1234.3282998998184,1234.3282998998184,1234.3282998998184,1234.842279399978,,,,,,,,,,,,,,,,,,,,,,,,,,,MG2,001,2023-03-17_11h05.34.426,Expérimentation1_SOLO,2022.2.5,59.97681302492252,
"Seulement 2 pays touchent 3 océans, les Etats-Unis et le Canada",FAITS,"Seulement 2 pays touchent 3 océans, les Etats-Unis et le Canada",0,23,23,4,,,,,,,,,,,1234.842279399978,1234.842279399978,1234.842279399978,0.012551199877634645,seulement 2 pays touchent 3 oceans les etats-unis et le canada,[0.003703703703703704],[-0.39166666666666666],[1],[0],[0],[49.83082199981436],['Validation_button'],1284.6752580998,1284.6752580998,1289.6753688999452,1289.6753688999452,1289.6753688999452,1290.1916107998695,,,,,,,,,,,,,,,,,,,,,,,,,,,MG2,001,2023-03-17_11h05.34.426,Expérimentation1_SOLO,2022.2.5,59.97681302492252,
Une personne perdra environ 18 kilos de peau durant toute sa vie. ,POINTS,Une personne perdra environ 18 kilos de peau durant toute sa vie. ,0,24,24,26,,,,,,,,,,,1290.1916107998695,1290.1916107998695,1290.1916107998695,0.016879700124263763,une personne perdra environ 18 kilos de peau durant sa vie,[-0.004629629629629629],[-0.38981481481481484],[1],[0],[0],[37.16789130005054],['Validation_button'],1327.3611353999004,1327.3611353999004,1332.360967000015,1332.360967000015,1332.360967000015,1332.8745206999592,,,,,,,,,,,,,,,,,,,,,,,,,,,MG2,001,2023-03-17_11h05.34.426,Expérimentation1_SOLO,2022.2.5,59.97681302492252,
L’écriture chinoise comprend plus de 40 000 caractères. ,NOMS,L’écriture chinoise comprend plus de 40 000 caractères. ,0,25,25,18,,,,,,,,,,,1332.8745206999592,1332.8745206999592,1332.8745206999592,0.01653919997625053,l'ecriture chinoise comprend plus de 40 000 carecteres,[-0.013888888888888888],[-0.3972222222222222],[1],[0],[0],[38.32796679995954],['Validation_button'],1371.2076726998203,1371.2076726998203,1376.2079431000166,1376.2079431000166,1376.2079431000166,1376.7241236998234,,,,,,,,,,,,,,,,,,,,,,,,,,,MG2,001,2023-03-17_11h05.34.426,Expérimentation1_SOLO,2022.2.5,59.97681302492252,
"Tout comme l’empreinte digitale, le cœur est propre à chaque individu et on peut l’identifier grâce à sa signature cardiaque.",NOMS,"Tout comme l’empreinte digitale, le cœur est propre à chaque individu et on peut l’identifier grâce à sa signature cardiaque.",0,26,26,30,,,,,,,,,,,1376.7241236998234,1376.7241236998234,1376.7241236998234,0.017147599952295423,yout comme l'imprinte digitale le coeur est propre a chaque individu et on peut identifier grace a sa signature cardiaque,[-0.000925925925925926],[-0.3907407407407407],[1],[0],[0],[78.96258060005493],['Validation_button'],1455.6902530998923,1455.6902530998923,1460.6900515998714,1460.6900515998714,1460.6900515998714,1461.20664699981,,,,,,,,,,,,,,,,,,,,,,,,,,,MG2,001,2023-03-17_11h05.34.426,Expérimentation1_SOLO,2022.2.5,59.97681302492252,
Un attentat terroriste a eu lieu dans les métros Londonien en juillet 2005 ,DONNEES,Un attentat terroriste a eu lieu dans les métros Londonien en juillet 2005 ,0,27,27,5,,,,,,,,,,,1461.20664699981,1461.20664699981,1461.20664699981,0.011927600018680096,unattentat terroriste a lieu dans les metros londoniens en juillet 2005,"[0.008333333333333333, -0.012037037037037037]","[-0.2777777777777778, -0.3990740740740741]","[1, 1]","[0, 0]","[0, 0]","[2.5676797998603433, 55.23407160001807]",['Validation_button'],1516.439572099829,1516.439572099829,1521.4397448999807,1521.4397448999807,1521.4397448999807,1521.9560969998129,,,,,,,,,,,,,,,,,,,,,,,,,,,MG2,001,2023-03-17_11h05.34.426,Expérimentation1_SOLO,2022.2.5,59.97681302492252,
L’océan Atlantique est plus salé que l’océan Pacifique,NOMS,L’océan Atlantique est plus salé que l’océan Pacifique,0,28,28,14,,,,,,,,,,,1521.9560969998129,1521.9560969998129,1521.9560969998129,0.01284099998883903,locean atlantique est plus sale que l' ocean pacifique,[0.006481481481481481],[-0.3907407407407407],[1],[0],[0],[36.8504637000151],['Validation_button'],1558.8053680998273,1558.8053680998273,,,1563.8224870997947,,,,,,,,,,,,,,,,,,,,,,,,,,,,MG2,001,2023-03-17_11h05.34.426,Expérimentation1_SOLO,2022.2.5,59.97681302492252,
Les concerts Live 8 ont pris place dans les pays du G8 et en Afrique du Sud en juillet 2005.,NOMS,Les concerts Live 8 ont pris place dans les pays du G8 et en Afrique du Sud en juillet 2005.,0,29,29,16,,,,,,,,,,,1564.3387119998224,1564.3387119998224,1564.3387119998224,0.03083339985460043,les concerts live 8 ont pris place dans les pays du g8 et en afrique du dud en juillrt 2005,[-0.025],[-0.3972222222222222],[1],[0],[0],[78.08255270007066],['Validation_button'],1642.4214063999243,1642.4214063999243,1647.4214704998303,1647.4214704998303,1647.4214704998303,1647.9380585998297,,,,,,,,,,,,,,,,,,,,,,,,,,,MG2,001,2023-03-17_11h05.34.426,Expérimentation1_SOLO,2022.2.5,59.97681302492252,
Les séparatistes Tchéchènes du Sud de la Russie ont pris en otage une école en septembre 2004.,POINTS,Les séparatistes Tchéchènes du Sud de la Russie ont pris en otage une école en septembre 2004.,0,30,30,24,,,,,,,,,,,1647.9380585998297,1647.9380585998297,1647.9380585998297,0.01643229997716844,les separatistes tchechenes du sud de la russie ont pris hotage une ecole en septembre 2004,[-0.009259259259259259],[-0.39351851851851855],[1],[0],[0],[61.18096569995396],['Validation_button'],1709.120752000017,1709.120752000017,1714.1209066999145,1714.1209066999145,1714.1209066999145,1714.6373022999614,,,,,,,,,,,,,,,,,,,,,,,,,,,MG2,001,2023-03-17_11h05.34.426,Expérimentation1_SOLO,2022.2.5,59.97681302492252,
Le tsunami dévastateur en Asie s’est produit en décembre 2004 ,FAITS,Le tsunami dévastateur en Asie s’est produit en décembre 2004 ,0,31,31,1,,,,,,,,,,,1714.6373022999614,1714.6373022999614,1714.6373022999614,0.011251999996602535,le tsunami devasta teur  en asie sest produit en decembre 2004,[0.004629629629629629],[-0.39814814814814814],[1],[0],[0],[53.27108069998212],['Validation_button'],1767.9064133998472,1767.9064133998472,1772.9062916999683,1772.9062916999683,1772.9062916999683,1773.4064108999446,,,,,,,,,,,,,,,,,,,,,,,,,,,MG2,001,2023-03-17_11h05.34.426,Expérimentation1_SOLO,2022.2.5,59.97681302492252,
,,,,,,,,,,,,,,,,,,,,,,,,,,,,,,,,,,,1773.4064108999446,1776.4060302998405,i,370.5197022999637,,,,,,,,,,,,,,,,,,,,,,,MG2,001,2023-03-17_11h05.34.426,Expérimentation1_SOLO,2022.2.5,59.97681302492252,
,,,,,,,,,,,,,,,,,,,,,,,,,,,,,,,,,,,,,,,2146.951700599864,2147.4525549998507,2147.4525549998507,2150.452877699863,space,9.049124300014228,,,,,,,,,,,,,,,,,MG2,001,2023-03-17_11h05.34.426,Expérimentation1_SOLO,2022.2.5,59.97681302492252,
Les séparatistes Tchéchènes du Sud de la Russie ont pris en otage une école en septembre 2004.,POINTS,Les séparatistes Tchéchènes du Sud de la Russie ont pris en otage une école en septembre 2004.,,,,,0,0,0,24,,,,,,,,,,,,,,,,,,,,,,,,,,,,,2178.1325347998645,2178.649087799946,,,,,2160.049271499971,2160.049271499971,2160.049271499971,0.03253429988399148,infos,[0.000925925925925926],[-0.4046296296296296],[1],[0],[0],[18.0796961998567],['validation_reco'],,,,,MG2,001,2023-03-17_11h05.34.426,Expérimentation1_SOLO,2022.2.5,59.97681302492252,
"Seulement 2 pays touchent 3 océans, les Etats-Unis et le Canada",FAITS,"Seulement 2 pays touchent 3 océans, les Etats-Unis et le Canada",,,,,0,1,1,4,,,,,,,,,,,,,,,,,,,,,,,,,,,,,2187.449005999835,2187.965828199871,,,,,2178.649087799946,2178.649087799946,2178.649087799946,0.015133699867874384,infos,[0.006481481481481481],[-0.40555555555555556],[1],[0],[0],[8.798933499958366],['validation_reco'],,,,,MG2,001,2023-03-17_11h05.34.426,Expérimentation1_SOLO,2022.2.5,59.97681302492252,
La raie manta peut atteindre 9 mètres de long pour environ 2 tonnes.,INFOS,La raie manta peut atteindre 9 mètres de long pour environ 2 tonnes.,,,,,0,2,2,31,,,,,,,,,,,,,,,,,,,,,,,,,,,,,2199.9656581999734,2200.465396899963,,,,,2187.965828199871,2187.965828199871,2187.965828199871,0.014735399978235364,donnes,[0.011111111111111112],[-0.39444444444444443],[1],[0],[0],[12.000334499869496],['validation_reco'],,,,,MG2,001,2023-03-17_11h05.34.426,Expérimentation1_SOLO,2022.2.5,59.97681302492252,
Les ongles incarnés sont héréditaires ,DONNEES,Les ongles incarnés sont héréditaires ,,,,,0,3,3,7,,,,,,,,,,,,,,,,,,,,,,,,,,,,,2221.6485361999366,2222.1650900999084,,,,,2200.465396899963,2200.465396899963,2200.465396899963,0.004768700106069446,infos,[0.021296296296296296],[-0.39166666666666666],[1],[0],[0],[21.177024699980393],['validation_reco'],,,,,MG2,001,2023-03-17_11h05.34.426,Expérimentation1_SOLO,2022.2.5,59.97681302492252,
Le Groenland est l’île la plus grande du monde par sa superficie. ,FAITS,Le Groenland est l’île la plus grande du monde par sa superficie. ,,,,,0,4,4,0,,,,,,,,,,,,,,,,,,,,,,,,,,,,,2231.6984774998855,2232.215233299881,,,,,2222.1650900999084,2222.1650900999084,2222.1650900999084,0.017140999902039766,faits,[0.016666666666666666],[-0.3907407407407407],[1],[0],[0],[9.531078699976206],['validation_reco'],,,,,MG2,001,2023-03-17_11h05.34.426,Expérimentation1_SOLO,2022.2.5,59.97681302492252,
La république dominicaine est le seul pays qui possède un drapeau contenant une bible.,NOMS,La république dominicaine est le seul pays qui possède un drapeau contenant une bible.,,,,,0,5,5,15,,,,,,,,,,,,,,,,,,,,,,,,,,,,,2245.132036499912,2245.6483982999343,,,,,2232.215233299881,2232.215233299881,2232.215233299881,0.018380400026217103,items,[0.002777777777777778],[-0.4009259259259259],[1],[0],[0],[12.912191400071606],['validation_reco'],,,,,MG2,001,2023-03-17_11h05.34.426,Expérimentation1_SOLO,2022.2.5,59.97681302492252,
L’Himalaya continue de grandir en raison des collisions des plaques tectoniques.,ITEMS,L’Himalaya continue de grandir en raison des collisions des plaques tectoniques.,,,,,0,6,6,21,,,,,,,,,,,,,,,,,,,,,,,,,,,,,2261.1646534998436,2261.681318299845,,,,,2245.6483982999343,2245.6483982999343,2245.6483982999343,0.017883700085803866,infos,[-0.010185185185185186],[-0.4],[1],[0],[0],[15.513927800115198],['validation_reco'],,,,,MG2,001,2023-03-17_11h05.34.426,Expérimentation1_SOLO,2022.2.5,59.97681302492252,
L’océan Atlantique est plus salé que l’océan Pacifique,NOMS,L’océan Atlantique est plus salé que l’océan Pacifique,,,,,0,7,7,14,,,,,,,,,,,,,,,,,,,,,,,,,,,,,2282.4981286998373,2282.9979786998592,,,,,2261.681318299845,2261.681318299845,2261.681318299845,0.019553699996322393,donnes,[0.025],[-0.39814814814814814],[1],[0],[0],[20.811956299934536],['validation_reco'],,,,,MG2,001,2023-03-17_11h05.34.426,Expérimentation1_SOLO,2022.2.5,59.97681302492252,
Les oiseaux bleus ne peuvent pas voir la couleur bleue. ,FAITS,Les oiseaux bleus ne peuvent pas voir la couleur bleue. ,,,,,0,8,8,3,,,,,,,,,,,,,,,,,,,,,,,,,,,,,2291.897873400012,2292.3979495000094,,,,,2282.9979786998592,2282.9979786998592,2282.9979786998592,0.006356399971991777,infos,[0.007407407407407408],[-0.39814814814814814],[1],[0],[0],[8.890867999987677],['validation_reco'],,,,,MG2,001,2023-03-17_11h05.34.426,Expérimentation1_SOLO,2022.2.5,59.97681302492252,
La plus longue composition classique prendrait 639 ans à être interprétée. ,POINTS,La plus longue composition classique prendrait 639 ans à être interprétée. ,,,,,0,9,9,25,,,,,,,,,,,,,,,,,,,,,,,,,,,,,2301.9311153998133,2302.449060099898,,,,,2292.3979495000094,2292.3979495000094,2292.3979495000094,0.009101000148802996,points,[0.007407407407407408],[-0.39814814814814814],[1],[0],[0],[9.523922099964693],['validation_reco'],,,,,MG2,001,2023-03-17_11h05.34.426,Expérimentation1_SOLO,2022.2.5,59.97681302492252,
Les concerts Live 8 ont pris place dans les pays du G8 et en Afrique du Sud en juillet 2005.,NOMS,Les concerts Live 8 ont pris place dans les pays du G8 et en Afrique du Sud en juillet 2005.,,,,,0,10,10,16,,,,,,,,,,,,,,,,,,,,,,,,,,,,,2315.2340010998305,2315.7477131998166,,,,,2302.449060099898,2302.449060099898,2302.449060099898,0.022971700178459287,items,[0.014814814814814815],[-0.39814814814814814],[1],[0],[0],[12.778565699933097],['validation_reco'],,,,,MG2,001,2023-03-17_11h05.34.426,Expérimentation1_SOLO,2022.2.5,59.97681302492252,
Une personne perdra environ 18 kilos de peau durant toute sa vie. ,POINTS,Une personne perdra environ 18 kilos de peau durant toute sa vie. ,,,,,0,11,11,26,,,,,,,,,,,,,,,,,,,,,,,,,,,,,2327.8812072,2328.3975360998884,,,,,2315.7477131998166,2315.7477131998166,2315.7477131998166,0.014155700104311109,donnes,[0.025925925925925925],[-0.4064814814814815],[1],[0],[0],[12.130481800064445],['validation_reco'],,,,,MG2,001,2023-03-17_11h05.34.426,Expérimentation1_SOLO,2022.2.5,59.97681302492252,
L’écriture chinoise comprend plus de 40 000 caractères. ,NOMS,L’écriture chinoise comprend plus de 40 000 caractères. ,,,,,0,12,12,18,,,,,,,,,,,,,,,,,,,,,,,,,,,,,2340.164153699996,2340.6639859999996,,,,,2328.3975360998884,2328.3975360998884,2328.3975360998884,0.014834300149232149,infos,[0.026851851851851852],[-0.4074074074074074],[1],[0],[0],[11.766569499857724],['validation_reco'],,,,,MG2,001,2023-03-17_11h05.34.426,Expérimentation1_SOLO,2022.2.5,59.97681302492252,
Le cœur d’une crevette est dans sa tête. ,POINTS,Le cœur d’une crevette est dans sa tête. ,,,,,0,13,13,28,,,,,,,,,,,,,,,,,,,,,,,,,,,,,2347.6973725999705,2348.2139781999867,,,,,2340.6639859999996,2340.6639859999996,2340.6639859999996,0.005763099994510412,faits,[-0.017592592592592594],[-0.3962962962962963],[1],[0],[0],[7.025885500013828],['validation_reco'],,,,,MG2,001,2023-03-17_11h05.34.426,Expérimentation1_SOLO,2022.2.5,59.97681302492252,
L’indicatif téléphonique international de l’Antarctique est 672 ,INFOS,L’indicatif téléphonique international de l’Antarctique est 672 ,,,,,0,14,14,10,,,,,,,,,,,,,,,,,,,,,,,,,,,,,2360.0472022998147,2360.546775699826,,,,,2348.2139781999867,2348.2139781999867,2348.2139781999867,0.01609739987179637,infos,"[0.037037037037037035, 0.018518518518518517]","[-0.39444444444444443, -0.4027777777777778]","[1, 1]","[0, 0]","[0, 0]","[10.665268699871376, 11.831903299782425]",['validation_reco'],,,,,MG2,001,2023-03-17_11h05.34.426,Expérimentation1_SOLO,2022.2.5,59.97681302492252,
Le tsunami dévastateur en Asie s’est produit en décembre 2004 ,FAITS,Le tsunami dévastateur en Asie s’est produit en décembre 2004 ,,,,,0,15,15,1,,,,,,,,,,,,,,,,,,,,,,,,,,,,,2374.7970018999185,2375.3138401999604,,,,,2360.546775699826,2360.546775699826,2360.546775699826,0.005715399980545044,infos,[0.024074074074074074],[-0.4027777777777778],[1],[0],[0],[14.242413900094107],['validation_reco'],,,,,MG2,001,2023-03-17_11h05.34.426,Expérimentation1_SOLO,2022.2.5,59.97681302492252,
L’Europe est le seul continent sans désert ,DONNEES,L’Europe est le seul continent sans désert ,,,,,0,16,16,8,,,,,,,,,,,,,,,,,,,,,,,,,,,,,2388.330137599958,2388.846731199883,,,,,2375.3138401999604,2375.3138401999604,2375.3138401999604,0.012997499899938703,items,"[0.014814814814814815, 0.012037037037037037, 0.016666666666666666]","[-0.38425925925925924, -0.38333333333333336, -0.39537037037037037]","[1, 1, 1]","[0, 0, 0]","[0, 0, 0]","[11.58529179985635, 12.401913899928331, 13.01825480000116]",['validation_reco'],,,,,MG2,001,2023-03-17_11h05.34.426,Expérimentation1_SOLO,2022.2.5,59.97681302492252,
Un attentat terroriste a eu lieu dans les métros Londonien en juillet 2005 ,DONNEES,Un attentat terroriste a eu lieu dans les métros Londonien en juillet 2005 ,,,,,0,17,17,5,,,,,,,,,,,,,,,,,,,,,,,,,,,,,2410.546501399949,2411.046797399875,,,,,2388.846731199883,2388.846731199883,2388.846731199883,0.01610959996469319,infos,[0.002777777777777778],[-0.4101851851851852],[1],[0],[0],[21.698882599826902],['validation_reco'],,,,,MG2,001,2023-03-17_11h05.34.426,Expérimentation1_SOLO,2022.2.5,59.97681302492252,
L’œil d’une autruche est plus gros que son cerveau. ,ITEMS,L’œil d’une autruche est plus gros que son cerveau. ,,,,,0,18,18,19,,,,,,,,,,,,,,,,,,,,,,,,,,,,,2419.913296799874,2420.4298509999644,,,,,2411.046797399875,2411.046797399875,2411.046797399875,0.007078999886289239,items,[0.001851851851851852],[-0.39351851851851855],[1],[0],[0],[8.857999100117013],['validation_reco'],,,,,MG2,001,2023-03-17_11h05.34.426,Expérimentation1_SOLO,2022.2.5,59.97681302492252,
La carte de visite d’Al Capone indiquait qu’il était vendeur de meuble d’occasion.,INFOS,La carte de visite d’Al Capone indiquait qu’il était vendeur de meuble d’occasion.,,,,,0,19,19,13,,,,,,,,,,,,,,,,,,,,,,,,,,,,,2438.813272099942,2439.313306499971,,,,,2420.4298509999644,2420.4298509999644,2420.4298509999644,0.018157399957999587,items,[0.001851851851851852],[-0.39351851851851855],[1],[0],[0],[18.38045180006884],['validation_reco'],,,,,MG2,001,2023-03-17_11h05.34.426,Expérimentation1_SOLO,2022.2.5,59.97681302492252,
Une personne brule plus de calories quand il dort que lorsqu’il regarde la télé. ,ITEMS,Une personne brule plus de calories quand il dort que lorsqu’il regarde la télé. ,,,,,0,20,20,20,,,,,,,,,,,,,,,,,,,,,,,,,,,,,2447.2960437999573,2447.8129829999525,,,,,2439.313306499971,2439.313306499971,2439.313306499971,0.007445299997925758,donnes,[0.001851851851851852],[-0.39351851851851855],[1],[0],[0],[7.973565699998289],['validation_reco'],,,,,MG2,001,2023-03-17_11h05.34.426,Expérimentation1_SOLO,2022.2.5,59.97681302492252,
On peut reproduire une clé grâce au son qu’elle émet lorsqu’on l’insère dans une serrure.,POINTS,On peut reproduire une clé grâce au son qu’elle émet lorsqu’on l’insère dans une serrure.,,,,,0,21,21,29,,,,,,,,,,,,,,,,,,,,,,,,,,,,,2460.4628456998616,2460.9794621998444,,,,,2447.8129829999525,2447.8129829999525,2447.8129829999525,0.019326099893078208,items,[-0.016666666666666666],[-0.4064814814814815],[1],[0],[0],[12.646298700012267],['validation_reco'],,,,,MG2,001,2023-03-17_11h05.34.426,Expérimentation1_SOLO,2022.2.5,59.97681302492252,
Il y a eu 25 présidents Français ,DONNEES,Il y a eu 25 présidents Français ,,,,,0,22,22,6,,,,,,,,,,,,,,,,,,,,,,,,,,,,,2476.8458030999172,2477.3640983998775,,,,,2460.9794621998444,2460.9794621998444,2460.9794621998444,0.011377699906006455,fait,[-0.030555555555555555],[-0.4111111111111111],[1],[0],[0],[15.869567000074312],['validation_reco'],,,,,MG2,001,2023-03-17_11h05.34.426,Expérimentation1_SOLO,2022.2.5,59.97681302492252,
"Tout comme l’empreinte digitale, le cœur est propre à chaque individu et on peut l’identifier grâce à sa signature cardiaque.",NOMS,"Tout comme l’empreinte digitale, le cœur est propre à chaque individu et on peut l’identifier grâce à sa signature cardiaque.",,,,,0,23,23,30,,,,,,,,,,,,,,,,,,,,,,,,,,,,,2506.048520799959,2506.548821899807,,,,,2477.3640983998775,2477.3640983998775,2477.3640983998775,0.0222032000310719,faits,[-0.011111111111111112],[-0.3907407407407407],[1],[0],[0],[28.677845699945465],['validation_reco'],,,,,MG2,001,2023-03-17_11h05.34.426,Expérimentation1_SOLO,2022.2.5,59.97681302492252,
La cacahuète est l’un des ingrédients de la dynamite. ,POINTS,La cacahuète est l’un des ingrédients de la dynamite. ,,,,,0,24,24,27,,,,,,,,,,,,,,,,,,,,,,,,,,,,,2516.1146292998455,2516.628828599816,,,,,2506.548821899807,2506.548821899807,2506.548821899807,0.008107399800792336,items,[0.017592592592592594],[-0.4],[1],[0],[0],[9.557086499873549],['validation_reco'],,,,,MG2,001,2023-03-17_11h05.34.426,Expérimentation1_SOLO,2022.2.5,59.97681302492252,
La Corée du Nord a annoncé avoir conduit un test nucléaire avec succès en octobre 2006. ,ITEMS,La Corée du Nord a annoncé avoir conduit un test nucléaire avec succès en octobre 2006. ,,,,,0,25,25,23,,,,,,,,,,,,,,,,,,,,,,,,,,,,,2528.795497499872,2529.312004999956,,,,,2516.628828599816,2516.628828599816,2516.628828599816,0.017322300001978874,infos,[0.008333333333333333],[-0.4009259259259259],[1],[0],[0],[12.161496000131592],['validation_reco'],,,,,MG2,001,2023-03-17_11h05.34.426,Expérimentation1_SOLO,2022.2.5,59.97681302492252,
Il y a en moyenne 178 graines de sésames sur le pain du Big Mac de McDonald. ,NOMS,Il y a en moyenne 178 graines de sésames sur le pain du Big Mac de McDonald. ,,,,,0,26,26,17,,,,,,,,,,,,,,,,,,,,,,,,,,,,,2535.64525039983,2536.1619874997996,,,,,2529.312004999956,2529.312004999956,2529.312004999956,0.019359000027179718,infos,[0.008333333333333333],[-0.4009259259259259],[1],[0],[0],[6.329921099822968],['validation_reco'],,,,,MG2,001,2023-03-17_11h05.34.426,Expérimentation1_SOLO,2022.2.5,59.97681302492252,
Une vache produit environ 200 000 bouteilles de lait dans sa vie. ,FAITS,Une vache produit environ 200 000 bouteilles de lait dans sa vie. ,,,,,0,27,27,2,,,,,,,,,,,,,,,,,,,,,,,,,,,,,2547.1286996998824,2547.62854960002,,,,,2536.1619874997996,2536.1619874997996,2536.1619874997996,0.01598950009793043,donnes,[0.008333333333333333],[-0.4009259259259259],[1],[0],[0],[10.965208400040865],['validation_reco'],,,,,MG2,001,2023-03-17_11h05.34.426,Expérimentation1_SOLO,2022.2.5,59.97681302492252,
Les élastiques sont plus longs quand ils sont très froids/réfrigérés.,INFOS,Les élastiques sont plus longs quand ils sont très froids/réfrigérés.,,,,,0,28,28,11,,,,,,,,,,,,,,,,,,,,,,,,,,,,,2562.011665799888,2562.528369499836,,,,,2547.62854960002,2547.62854960002,2547.62854960002,0.008093300042673945,faits,[0.008333333333333333],[-0.40185185185185185],[1],[0],[0],[14.373103899881244],['validation_reco'],,,,,MG2,001,2023-03-17_11h05.34.426,Expérimentation1_SOLO,2022.2.5,59.97681302492252,
La pyramide de Gizé est la seule des 7 merveilles de l’ancien monde qui existe toujours.,ITEMS,La pyramide de Gizé est la seule des 7 merveilles de l’ancien monde qui existe toujours.,,,,,0,29,29,22,,,,,,,,,,,,,,,,,,,,,,,,,,,,,2570.478429199895,2570.994965699967,,,,,2562.528369499836,2562.528369499836,2562.528369499836,0.02033500000834465,donnes,[0.008333333333333333],[-0.40185185185185185],[1],[0],[0],[7.945572099881247],['validation_reco'],,,,,MG2,001,2023-03-17_11h05.34.426,Expérimentation1_SOLO,2022.2.5,59.97681302492252,
Les frites sont originaires de France et non de Belgique,INFOS,Les frites sont originaires de France et non de Belgique,,,,,0,30,30,12,,,,,,,,,,,,,,,,,,,,,,,,,,,,,2578.4115813998505,2578.9448354998603,,,,,2570.994965699967,2570.994965699967,2570.994965699967,0.013624300016090274,faits,[0.013888888888888888],[-0.40185185185185185],[1],[0],[0],[7.417763900011778],['validation_reco'],,,,,MG2,001,2023-03-17_11h05.34.426,Expérimentation1_SOLO,2022.2.5,59.97681302492252,
La navette Spatiale Columbia s’est désintégrée durant son entrée dans l’atmosphère au-dessus du Texas en février 2003 ,DONNEES,La navette Spatiale Columbia s’est désintégrée durant son entrée dans l’atmosphère au-dessus du Texas en février 2003 ,,,,,0,31,31,9,,,,,,,,,,,,,,,,,,,,,,,,,,,,,2590.3278551998083,2590.828493699897,,,,,2578.9448354998603,2578.9448354998603,2578.9448354998603,0.024982999777421355,items,[0.017592592592592594],[-0.4064814814814815],[1],[0],[0],[11.389901699963957],['validation_reco'],,,,,MG2,001,2023-03-17_11h05.34.426,Expérimentation1_SOLO,2022.2.5,59.97681302492252,
,,,,,,,,,,,,,,,,,,,,,,,,,,,,,,,,,,,,,,,,,,,,,,,,,,,,,,,,,2590.828493699897,2590.828493699897,i,90.30450089997612,MG2,001,2023-03-17_11h05.34.426,Expérimentation1_SOLO,2022.2.5,59.97681302492252,
