anecdotes,fichier,anecdotes_reco,boucle_tâche.thisRepN,boucle_tâche.thisTrialN,boucle_tâche.thisN,boucle_tâche.thisIndex,boucle_reco.thisRepN,boucle_reco.thisTrialN,boucle_reco.thisN,boucle_reco.thisIndex,textWelcome.started,textWelcome.stopped,Instructions.started,key_resp.started,key_resp.keys,key_resp.rt,Anecdotes.started,tache_text.started,Validation_button.started,mouse_click.started,tache_text.text,mouse_click.x,mouse_click.y,mouse_click.leftButton,mouse_click.midButton,mouse_click.rightButton,mouse_click.time,mouse_click.clicked_name,feedbacktext.started,feedback_fichier_train.started,feedbacktext.stopped,feedback_fichier_train.stopped,text.started,text.stopped,waiting_screen.started,key_resp_2.started,key_resp_2.keys,key_resp_2.rt,blank.started,blank.stopped,text_3.started,key_resp_3.started,key_resp_3.keys,key_resp_3.rt,Anecdotes_reco.started,reco_text.started,validation_reco.started,mouse_reco.started,reco_text.text,mouse_reco.x,mouse_reco.y,mouse_reco.leftButton,mouse_reco.midButton,mouse_reco.rightButton,mouse_reco.time,mouse_reco.clicked_name,text_2.started,end.started,end.keys,end.rt,participant,session,date,expName,psychopyVersion,frameRate,
,,,,,,,,,,,94.13876179998624,96.14874789997702,96.14874789997702,99.13220969997928,space,9.852223499998217,,,,,,,,,,,,,,,,,,,,,,,,,,,,,,,,,,,,,,,,,,,,,MC6,002,2023-03-20_10h54.35.646,Expérimentation1_SOLO,2022.2.5,60.10894145280477,
Le tsunami dévastateur en Asie s’est produit en décembre 2004 ,FAITS,Le tsunami dévastateur en Asie s’est produit en décembre 2004 ,0,0,0,1,,,,,,,,,,,109.06221909998567,109.06221909998567,109.06221909998567,0.04214920001686551, Le tsunami dévastateur en Asie s'est produit en décembre 2004,[-0.001851851851851852],[-0.39814814814814814],[1],[0],[0],[25.93939380001393],['Validation_button'],134.9979514000006,134.9979514000006,139.99810099997558,139.99810099997558,139.99810099997558,140.50652799999807,,,,,,,,,,,,,,,,,,,,,,,,,,,MC6,002,2023-03-20_10h54.35.646,Expérimentation1_SOLO,2022.2.5,60.10894145280477,
La république dominicaine est le seul pays qui possède un drapeau contenant une bible ,NOMS,La république dominicaine est le seul pays qui possède un drapeau contenant une bible ,0,1,1,15,,,,,,,,,,,140.50652799999807,140.50652799999807,140.50652799999807,0.01582960001542233,La république dominicaine est le seul pays qui possède un drapeau contenant une bible,[-0.001851851851851852],[-0.4009259259259259],[1],[0],[0],[35.167568299977574],['Validation_button'],175.6813668999821,175.6813668999821,180.68146019999404,180.68146019999404,180.68146019999404,181.18136749998666,,,,,,,,,,,,,,,,,,,,,,,,,,,MC6,002,2023-03-20_10h54.35.646,Expérimentation1_SOLO,2022.2.5,60.10894145280477,
Les frites sont originaires de France et non de Belgique,INFOS,Les frites sont originaires de France et non de Belgique,0,2,2,12,,,,,,,,,,,181.18136749998666,181.18136749998666,181.18136749998666,0.006597900006454438,les frites sont originaires de France et non de Belgique,[-0.001851851851851852],[-0.4046296296296296],[1],[0],[0],[21.041002599988133],['Validation_button'],202.23136789997807,202.23136789997807,207.23121249998803,207.23121249998803,207.23121249998803,207.74497299999348,,,,,,,,,,,,,,,,,,,,,,,,,,,MC6,002,2023-03-20_10h54.35.646,Expérimentation1_SOLO,2022.2.5,60.10894145280477,
"Tout comme l’empreinte digitale, le cœur est propre à chaque individu et on peut l’identifier grâce à sa signature cardiaque ",NOMS,"Tout comme l’empreinte digitale, le cœur est propre à chaque individu et on peut l’identifier grâce à sa signature cardiaque ",0,3,3,30,,,,,,,,,,,207.74497299999348,207.74497299999348,207.74497299999348,0.02113189999363385,"Tout comme l'empreinte digitale, le coeur est propres à chaque individu et on peut l'identifier grace à sa signature cardiaque",[-0.012962962962962963],[-0.3972222222222222],[1],[0],[0],[39.11079390000668],['Validation_button'],246.86469979997491,246.86469979997491,251.8646649000002,251.8646649000002,251.8646649000002,252.3646858999855,,,,,,,,,,,,,,,,,,,,,,,,,,,MC6,002,2023-03-20_10h54.35.646,Expérimentation1_SOLO,2022.2.5,60.10894145280477,
L’œil d’une autruche est plus gros que son cerveau  ,ITEMS,L’œil d’une autruche est plus gros que son cerveau  ,0,4,4,19,,,,,,,,,,,252.3646858999855,252.3646858999855,252.3646858999855,0.007726000010734424,l'oeil d'une autruche est plus gros que son cerveau,[0.008333333333333333],[-0.40185185185185185],[1],[0],[0],[17.491414899996016],['Validation_button'],269.8649522999767,269.8649522999767,274.864768200001,274.864768200001,274.864768200001,275.36485630000243,,,,,,,,,,,,,,,,,,,,,,,,,,,MC6,002,2023-03-20_10h54.35.646,Expérimentation1_SOLO,2022.2.5,60.10894145280477,
La carte de visite d’Al Capone indiquait qu’il était vendeur de meuble d’occasion ,INFOS,La carte de visite d’Al Capone indiquait qu’il était vendeur de meuble d’occasion ,0,5,5,13,,,,,,,,,,,275.36485630000243,275.36485630000243,275.36485630000243,0.008439900004304945,La carte de visite d'Al Capone indiquait qu'il était vendeur de meuble d'occasion,[-0.011111111111111112],[-0.39444444444444443],[1],[0],[0],[30.423494100017706],['Validation_button'],305.7981840999855,305.7981840999855,310.7981460999872,310.7981460999872,310.7981460999872,311.29848879997735,,,,,,,,,,,,,,,,,,,,,,,,,,,MC6,002,2023-03-20_10h54.35.646,Expérimentation1_SOLO,2022.2.5,60.10894145280477,
Le cœur d’une crevette est dans sa tête  ,POINTS,Le cœur d’une crevette est dans sa tête  ,0,6,6,28,,,,,,,,,,,311.29848879997735,311.29848879997735,311.29848879997735,0.006027299998095259,Le coeur d'une crevette est dans sa tete,[0.014814814814814815],[-0.4083333333333333],[1],[0],[0],[11.491666599991731],['Validation_button'],322.79829350000364,322.79829350000364,327.79834809998283,327.79834809998283,327.79834809998283,328.2986066000012,,,,,,,,,,,,,,,,,,,,,,,,,,,MC6,002,2023-03-20_10h54.35.646,Expérimentation1_SOLO,2022.2.5,60.10894145280477,
Une vache produit environ 200 000 bouteilles de lait dans sa vie  ,FAITS,Une vache produit environ 200 000 bouteilles de lait dans sa vie  ,0,7,7,2,,,,,,,,,,,328.2986066000012,328.2986066000012,328.2986066000012,0.008638400002382696,une vache produit environ 200000 bouteilles de lait dans sa vie,[-0.017592592592592594],[-0.39814814814814814],[1],[0],[0],[18.87331739999354],['Validation_button'],347.181798399979,347.181798399979,352.181769399991,352.181769399991,352.181769399991,352.6938040999812,,,,,,,,,,,,,,,,,,,,,,,,,,,MC6,002,2023-03-20_10h54.35.646,Expérimentation1_SOLO,2022.2.5,60.10894145280477,
La pyramide de Gizé est la seule des 7 merveilles de l’ancien monde qui existe toujours ,ITEMS,La pyramide de Gizé est la seule des 7 merveilles de l’ancien monde qui existe toujours ,0,8,8,22,,,,,,,,,,,352.6938040999812,352.6938040999812,352.6938040999812,0.020504400017671287,La pyramide de Gizé est la seule des 7 merveilles de l'ancien monde qui existe toujours,[-0.022222222222222223],[-0.39537037037037037],[1],[0],[0],[25.37851199999568],['Validation_button'],378.0818456999841,378.0818456999841,383.0817654999846,383.0817654999846,383.0817654999846,383.58943100000033,,,,,,,,,,,,,,,,,,,,,,,,,,,MC6,002,2023-03-20_10h54.35.646,Expérimentation1_SOLO,2022.2.5,60.10894145280477,
Il y a eu 25 présidents Français ,DONNEES,Il y a eu 25 présidents Français ,0,9,9,6,,,,,,,,,,,383.58943100000033,383.58943100000033,383.58943100000033,0.014171300019370392,il y a eu 25 présidents français,[0.016666666666666666],[-0.3925925925925926],[1],[0],[0],[15.91822350001894],['Validation_button'],399.51514000000316,399.51514000000316,404.5150190999848,404.5150190999848,404.5150190999848,405.01963619998423,,,,,,,,,,,,,,,,,,,,,,,,,,,MC6,002,2023-03-20_10h54.35.646,Expérimentation1_SOLO,2022.2.5,60.10894145280477,
Les oiseaux bleus ne peuvent pas voir la couleur bleue  ,FAITS,Les oiseaux bleus ne peuvent pas voir la couleur bleue  ,0,10,10,3,,,,,,,,,,,405.01963619998423,405.01963619998423,405.01963619998423,0.011161600006744266,les oiseaux bleux ne peuvent pas voir la couleur bleue,[0.011111111111111112],[-0.39814814814814814],[1],[0],[0],[18.48856880000676],['Validation_button'],423.51504889997886,423.51504889997886,428.51512809999986,428.51512809999986,428.51512809999986,429.0232050999766,,,,,,,,,,,,,,,,,,,,,,,,,,,MC6,002,2023-03-20_10h54.35.646,Expérimentation1_SOLO,2022.2.5,60.10894145280477,
La Corée du Nord a annoncé avoir conduit un test nucléaire avec succès en octobre 2006  ,ITEMS,La Corée du Nord a annoncé avoir conduit un test nucléaire avec succès en octobre 2006  ,0,11,11,23,,,,,,,,,,,429.0232050999766,429.0232050999766,429.0232050999766,0.013168299978133291,la corée du nord a annoncé avoir conduit un test nucléaire avec succès en octobre 2006,[-0.000925925925925926],[-0.4027777777777778],[1],[0],[0],[31.33429269999033],['Validation_button'],460.3669729999965,460.3669729999965,,,465.3821312999935,,,,,,,,,,,,,,,,,,,,,,,,,,,,MC6,002,2023-03-20_10h54.35.646,Expérimentation1_SOLO,2022.2.5,60.10894145280477,
La raie manta peut atteindre 9 mètres de long pour environ 2 tonnes ,INFOS,La raie manta peut atteindre 9 mètres de long pour environ 2 tonnes ,0,12,12,31,,,,,,,,,,,465.88792919999105,465.88792919999105,465.88792919999105,0.02516509999986738,La raie manta peut atteindre 9 mètres de long pour environ 2 tonnes,[0.007407407407407408],[-0.3990740740740741],[1],[0],[0],[18.952760899992427],['Validation_button'],484.84880619999603,484.84880619999603,489.84871639998164,489.84871639998164,489.84871639998164,490.3488690999802,,,,,,,,,,,,,,,,,,,,,,,,,,,MC6,002,2023-03-20_10h54.35.646,Expérimentation1_SOLO,2022.2.5,60.10894145280477,
L’indicatif téléphonique international de l’Antarctique est 672 ,INFOS,L’indicatif téléphonique international de l’Antarctique est 672 ,0,13,13,10,,,,,,,,,,,490.3488690999802,490.3488690999802,490.3488690999802,0.006619299994781613,l'indicatif téléphonique international de l'antarctique est 672,"[0.021296296296296296, 0.016666666666666666, 0.016666666666666666]","[-0.41759259259259257, -0.387037037037037, -0.39444444444444443]","[1, 1, 1]","[0, 0, 0]","[0, 0, 0]","[22.64194800000405, 23.125400699995225, 23.841523999988567]",['Validation_button'],514.1986642999982,514.1986642999982,519.1986313999805,519.1986313999805,519.1986313999805,519.7043943000026,,,,,,,,,,,,,,,,,,,,,,,,,,,MC6,002,2023-03-20_10h54.35.646,Expérimentation1_SOLO,2022.2.5,60.10894145280477,
L’écriture chinoise comprend plus de 40 000 caractères  ,NOMS,L’écriture chinoise comprend plus de 40 000 caractères  ,0,14,14,18,,,,,,,,,,,519.7043943000026,519.7043943000026,519.7043943000026,0.01138460001675412,L'écriture chinoise comprend plus de 40 000 caractères,"[0.027777777777777776, 0.012962962962962963]","[-0.41759259259259257, -0.39166666666666666]","[1, 1]","[0, 0]","[0, 0]","[18.83673280000221, 19.302905800024746]",['Validation_button'],539.0154982999957,539.0154982999957,544.0153351999761,544.0153351999761,544.0153351999761,544.5282950999972,,,,,,,,,,,,,,,,,,,,,,,,,,,MC6,002,2023-03-20_10h54.35.646,Expérimentation1_SOLO,2022.2.5,60.10894145280477,
Les élastiques sont plus longs quand ils sont très froids/réfrigérés ,INFOS,Les élastiques sont plus longs quand ils sont très froids/réfrigérés ,0,15,15,11,,,,,,,,,,,544.5282950999972,544.5282950999972,544.5282950999972,0.017624200001591817,Les élastiques sont plus longs quand ils sont très froids/réfrigérés,[0.005555555555555556],[-0.4],[1],[0],[0],[22.948477099998854],['Validation_button'],567.4823585999839,567.4823585999839,572.4820992999885,572.4820992999885,572.4820992999885,572.9900746999774,,,,,,,,,,,,,,,,,,,,,,,,,,,MC6,002,2023-03-20_10h54.35.646,Expérimentation1_SOLO,2022.2.5,60.10894145280477,
Une personne perdra environ 18 kilos de peau durant toute sa vie  ,POINTS,Une personne perdra environ 18 kilos de peau durant toute sa vie  ,0,16,16,26,,,,,,,,,,,572.9900746999774,572.9900746999774,572.9900746999774,0.016245000006165355,Une personne perdra environ 18 kilos de peau durant sa vie,[0.003703703703703704],[-0.39351851851851855],[1],[0],[0],[19.581907799991313],['Validation_button'],592.5823416999774,592.5823416999774,597.5821906999918,597.5821906999918,597.5821906999918,598.0824551999976,,,,,,,,,,,,,,,,,,,,,,,,,,,MC6,002,2023-03-20_10h54.35.646,Expérimentation1_SOLO,2022.2.5,60.10894145280477,
Il y a en moyenne 178 graines de sésames sur le pain du Big Mac de McDonald  ,NOMS,Il y a en moyenne 178 graines de sésames sur le pain du Big Mac de McDonald  ,0,17,17,17,,,,,,,,,,,598.0824551999976,598.0824551999976,598.0824551999976,0.0033705999958328903,Il y a en moyenne 178 graines de sésames sur le pain du Big Mac de McDonald,"[-0.012962962962962963, -0.003703703703703704]","[-0.4166666666666667, -0.39351851851851855]","[1, 1]","[0, 0]","[0, 0]","[24.91087650001282, 26.544273600011365]",['Validation_button'],624.6322998999967,624.6322998999967,629.6325203999877,629.6325203999877,629.6325203999877,630.132545600005,,,,,,,,,,,,,,,,,,,,,,,,,,,MC6,002,2023-03-20_10h54.35.646,Expérimentation1_SOLO,2022.2.5,60.10894145280477,
Les séparatistes Tchéchènes du Sud de la Russie ont pris en otage une école en septembre 2004 ,POINTS,Les séparatistes Tchéchènes du Sud de la Russie ont pris en otage une école en septembre 2004 ,0,18,18,24,,,,,,,,,,,630.132545600005,630.132545600005,630.132545600005,0.00854879996040836,Les séparatistes Tchéchènes du Sud de la Russie ont pris en otage une école en septembre 2004,[-0.002777777777777778],[-0.40370370370370373],[1],[0],[0],[37.42302370001562],['Validation_button'],667.5658538999851,667.5658538999851,672.5658775999909,672.5658775999909,672.5658775999909,673.070543800015,,,,,,,,,,,,,,,,,,,,,,,,,,,MC6,002,2023-03-20_10h54.35.646,Expérimentation1_SOLO,2022.2.5,60.10894145280477,
Les ongles incarnés sont héréditaires ,DONNEES,Les ongles incarnés sont héréditaires ,0,19,19,7,,,,,,,,,,,673.070543800015,673.070543800015,673.070543800015,0.009409300051629543,Les ongles incarnés sont héréditaires,[0.010185185185185186],[-0.3962962962962963],[1],[0],[0],[15.039138699998148],['Validation_button'],688.1157450000173,688.1157450000173,693.1158311999752,693.1158311999752,693.1158311999752,693.615813100012,,,,,,,,,,,,,,,,,,,,,,,,,,,MC6,002,2023-03-20_10h54.35.646,Expérimentation1_SOLO,2022.2.5,60.10894145280477,
Un attentat terroriste a eu lieu dans les métros Londonien en juillet 2005 ,DONNEES,Un attentat terroriste a eu lieu dans les métros Londonien en juillet 2005 ,0,20,20,5,,,,,,,,,,,693.615813100012,693.615813100012,693.615813100012,0.006761100026778877,Un attentat terroriste a eu lieu dans les métros Londonien en juillet 2005,[-0.012037037037037037],[-0.4],[1],[0],[0],[27.5409970000037],['Validation_button'],721.1659825000097,721.1659825000097,726.1659021999803,726.1659021999803,726.1659021999803,726.6659562999848,,,,,,,,,,,,,,,,,,,,,,,,,,,MC6,002,2023-03-20_10h54.35.646,Expérimentation1_SOLO,2022.2.5,60.10894145280477,
La cacahuète est l’un des ingrédients de la dynamite  ,POINTS,La cacahuète est l’un des ingrédients de la dynamite  ,0,21,21,27,,,,,,,,,,,726.6659562999848,726.6659562999848,726.6659562999848,0.006484600016847253,La cacahuète est l'un des ingrédients de la dynamite,[0.008333333333333333],[-0.3972222222222222],[1],[0],[0],[18.55809180001961],['Validation_button'],745.2327744999784,745.2327744999784,750.2326415000134,750.2326415000134,750.2326415000134,750.7326528999838,,,,,,,,,,,,,,,,,,,,,,,,,,,MC6,002,2023-03-20_10h54.35.646,Expérimentation1_SOLO,2022.2.5,60.10894145280477,
Une personne brule plus de calories quand il dort que lorsqu’il regarde la télé  ,ITEMS,Une personne brule plus de calories quand il dort que lorsqu’il regarde la télé  ,0,22,22,20,,,,,,,,,,,750.7326528999838,750.7326528999838,750.7326528999838,0.00779030000558123,Une personne brule plus de calories quand il dort que lorsqu'il regarde la télé,[0.017592592592592594],[-0.3972222222222222],[1],[0],[0],[22.52272800001083],['Validation_button'],773.2663168999716,773.2663168999716,778.2661729999818,778.2661729999818,778.2661729999818,778.7717766999849,,,,,,,,,,,,,,,,,,,,,,,,,,,MC6,002,2023-03-20_10h54.35.646,Expérimentation1_SOLO,2022.2.5,60.10894145280477,
L’Europe est le seul continent sans désert ,DONNEES,L’Europe est le seul continent sans désert ,0,23,23,8,,,,,,,,,,,778.7717766999849,778.7717766999849,778.7717766999849,0.011504500056616962,L'Europe est le seul continent sans désert,[0.017592592592592594],[-0.3972222222222222],[1],[0],[0],[14.503168800030835],['Validation_button'],793.2828525999794,793.2828525999794,798.2827740999637,798.2827740999637,798.2827740999637,798.7916345999693,,,,,,,,,,,,,,,,,,,,,,,,,,,MC6,002,2023-03-20_10h54.35.646,Expérimentation1_SOLO,2022.2.5,60.10894145280477,
L’Himalaya continue de grandir en raison des collisions des plaques tectoniques ,ITEMS,L’Himalaya continue de grandir en raison des collisions des plaques tectoniques ,0,24,24,21,,,,,,,,,,,798.7916345999693,798.7916345999693,798.7916345999693,0.01605170004768297,L'Himalaya continue de grandir en raison des collisions des plaques tectoniques,[-0.013888888888888888],[-0.4027777777777778],[1],[0],[0],[32.66583760001231],['Validation_button'],831.4663414999959,831.4663414999959,836.4659438999952,836.4659438999952,836.4659438999952,836.9721787999733,,,,,,,,,,,,,,,,,,,,,,,,,,,MC6,002,2023-03-20_10h54.35.646,Expérimentation1_SOLO,2022.2.5,60.10894145280477,
L’océan Atlantique est plus salé que l’océan Pacifique,NOMS,L’océan Atlantique est plus salé que l’océan Pacifique,0,25,25,14,,,,,,,,,,,836.9721787999733,836.9721787999733,836.9721787999733,0.012368299998342991,L'océan Atlantique est plus salé que l'océan pacifique,"[-0.016666666666666666, 0.000925925925925926]","[-0.3861111111111111, -0.4027777777777778]","[1, 1]","[0, 0]","[0, 0]","[16.769475399982184, 18.252868699957617]",['Validation_button'],855.2329632999608,855.2329632999608,860.2328572999686,860.2328572999686,860.2328572999686,860.7392641999759,,,,,,,,,,,,,,,,,,,,,,,,,,,MC6,002,2023-03-20_10h54.35.646,Expérimentation1_SOLO,2022.2.5,60.10894145280477,
La plus longue composition classique prendrait 639 ans à être interprétée  ,POINTS,La plus longue composition classique prendrait 639 ans à être interprétée  ,0,26,26,25,,,,,,,,,,,860.7392641999759,860.7392641999759,860.7392641999759,0.012121400039177388,La plus longue composition classique prendrait 639ans à etre interprétée,[-0.005555555555555556],[-0.39444444444444443],[1],[0],[0],[26.452173799974844],['Validation_button'],887.1997486000182,887.1997486000182,892.1995852999971,892.1995852999971,892.1995852999971,892.707602599985,,,,,,,,,,,,,,,,,,,,,,,,,,,MC6,002,2023-03-20_10h54.35.646,Expérimentation1_SOLO,2022.2.5,60.10894145280477,
"Seulement 2 pays touchent 3 océans, les Etats-Unis et le Canada",FAITS,"Seulement 2 pays touchent 3 océans, les Etats-Unis et le Canada",0,27,27,4,,,,,,,,,,,892.707602599985,892.707602599985,892.707602599985,0.014344399969559163,"Seulement 2 pays touchent 3 océans, les Etats-Unis et le Canada",[-0.012962962962962963],[-0.39537037037037037],[1],[0],[0],[34.18427189998329],['Validation_button'],926.8997532000067,926.8997532000067,931.89947080001,931.89947080001,931.89947080001,932.4104308999958,,,,,,,,,,,,,,,,,,,,,,,,,,,MC6,002,2023-03-20_10h54.35.646,Expérimentation1_SOLO,2022.2.5,60.10894145280477,
La navette Spatiale Columbia s’est désintégrée durant son entrée dans l’atmosphère au-dessus du Texas en février 2003 ,DONNEES,La navette Spatiale Columbia s’est désintégrée durant son entrée dans l’atmosphère au-dessus du Texas en février 2003 ,0,28,28,9,,,,,,,,,,,932.4104308999958,932.4104308999958,932.4104308999958,0.016355999978259206,La navette Spatiale Columbia s'est désintégrée durant son entrée dans l'atmosphère au-dessus du Texas en février 2003,[-0.007407407407407408],[-0.40185185185185185],[1],[0],[0],[43.66458490001969],['Validation_button'],976.0832493999624,976.0832493999624,981.0830791000044,981.0830791000044,981.0830791000044,981.5935297000105,,,,,,,,,,,,,,,,,,,,,,,,,,,MC6,002,2023-03-20_10h54.35.646,Expérimentation1_SOLO,2022.2.5,60.10894145280477,
Les concerts Live 8 ont pris place dans les pays du G8 et en Afrique du Sud en juillet 2005 ,NOMS,Les concerts Live 8 ont pris place dans les pays du G8 et en Afrique du Sud en juillet 2005 ,0,29,29,16,,,,,,,,,,,981.5935297000105,981.5935297000105,981.5935297000105,0.015552000026218593,Les concerts live 8 ont pris place dans les pays du G8 et en Afrique du Sud en juillet 2005,[-0.018518518518518517],[-0.4074074074074074],[1],[0],[0],[30.198940599977504],['Validation_button'],1011.7999839999829,1011.7999839999829,1016.7997049000114,1016.7997049000114,1016.7997049000114,1017.306072300009,,,,,,,,,,,,,,,,,,,,,,,,,,,MC6,002,2023-03-20_10h54.35.646,Expérimentation1_SOLO,2022.2.5,60.10894145280477,
Le Groenland est l’île la plus grande du monde par sa superficie  ,FAITS,Le Groenland est l’île la plus grande du monde par sa superficie  ,0,30,30,0,,,,,,,,,,,1017.306072300009,1017.306072300009,1017.306072300009,0.012643399997614324,Le Groenland est l'ile la plus grande du monde par sa superficie,[-0.019444444444444445],[-0.39166666666666666],[1],[0],[0],[25.66751270001987],['Validation_button'],1042.9834944999893,1042.9834944999893,1047.9831573999836,1047.9831573999836,1047.9831573999836,1048.493242299999,,,,,,,,,,,,,,,,,,,,,,,,,,,MC6,002,2023-03-20_10h54.35.646,Expérimentation1_SOLO,2022.2.5,60.10894145280477,
On peut reproduire une clé grâce au son qu’elle émet lorsqu’on l’insère dans une serrure ,POINTS,On peut reproduire une clé grâce au son qu’elle émet lorsqu’on l’insère dans une serrure ,0,31,31,29,,,,,,,,,,,1048.493242299999,1048.493242299999,1048.493242299999,0.015850499970838428,On peut reproduire une clé grace au son qu'elle émet lorsqu'on l'insère dans une serrure,[-0.003703703703703704],[-0.4101851851851852],[1],[0],[0],[29.65013289998751],['Validation_button'],1078.150148899993,1078.150148899993,1083.1497896999936,1083.1497896999936,1083.1497896999936,1083.65026949998,,,,,,,,,,,,,,,,,,,,,,,,,,,MC6,002,2023-03-20_10h54.35.646,Expérimentation1_SOLO,2022.2.5,60.10894145280477,
,,,,,,,,,,,,,,,,,,,,,,,,,,,,,,,,,,,1083.65026949998,1086.6501138000167,i,831.5840972999576,,,,,,,,,,,,,,,,,,,,,,,MC6,002,2023-03-20_10h54.35.646,Expérimentation1_SOLO,2022.2.5,60.10894145280477,
,,,,,,,,,,,,,,,,,,,,,,,,,,,,,,,,,,,,,,,1918.251769399969,1918.7527977999998,1918.7527977999998,1921.7359372999636,space,16.835085300030187,,,,,,,,,,,,,,,,,MC6,002,2023-03-20_10h54.35.646,Expérimentation1_SOLO,2022.2.5,60.10894145280477,
L’Himalaya continue de grandir en raison des collisions des plaques tectoniques ,ITEMS,L’Himalaya continue de grandir en raison des collisions des plaques tectoniques ,,,,,0,0,0,21,,,,,,,,,,,,,,,,,,,,,,,,,,,,,1954.3019855999737,1954.8086712000077,,,,,1939.1207172999857,1939.1207172999857,1939.1207172999857,0.027097799989860505,Faits,[-0.008333333333333333],[-0.4027777777777778],[1],[0],[0],[15.171302300004754],['validation_reco'],,,,,MC6,002,2023-03-20_10h54.35.646,Expérimentation1_SOLO,2022.2.5,60.10894145280477,
La Corée du Nord a annoncé avoir conduit un test nucléaire avec succès en octobre 2006  ,ITEMS,La Corée du Nord a annoncé avoir conduit un test nucléaire avec succès en octobre 2006  ,,,,,0,1,1,23,,,,,,,,,,,,,,,,,,,,,,,,,,,,,1971.6854288000031,1972.19379629998,,,,,1954.8086712000077,1954.8086712000077,1954.8086712000077,0.012678599974606186,Items,[0.023148148148148147],[-0.4074074074074074],[1],[0],[0],[16.869820600026287],['validation_reco'],,,,,MC6,002,2023-03-20_10h54.35.646,Expérimentation1_SOLO,2022.2.5,60.10894145280477,
L’indicatif téléphonique international de l’Antarctique est 672 ,INFOS,L’indicatif téléphonique international de l’Antarctique est 672 ,,,,,0,2,2,10,,,,,,,,,,,,,,,,,,,,,,,,,,,,,1987.9520755999838,1988.4602541999775,,,,,1972.19379629998,1972.19379629998,1972.19379629998,0.013294700009282678,Points,[0.013888888888888888],[-0.40370370370370373],[1],[0],[0],[15.751430600008462],['validation_reco'],,,,,MC6,002,2023-03-20_10h54.35.646,Expérimentation1_SOLO,2022.2.5,60.10894145280477,
L’océan Atlantique est plus salé que l’océan Pacifique,NOMS,L’océan Atlantique est plus salé que l’océan Pacifique,,,,,0,3,3,14,,,,,,,,,,,,,,,,,,,,,,,,,,,,,2004.0021739999647,2004.5100413999753,,,,,1988.4602541999775,1988.4602541999775,1988.4602541999775,0.013902400038205087,infos,[0.012962962962962963],[-0.4111111111111111],[1],[0],[0],[15.534061299986206],['validation_reco'],,,,,MC6,002,2023-03-20_10h54.35.646,Expérimentation1_SOLO,2022.2.5,60.10894145280477,
La pyramide de Gizé est la seule des 7 merveilles de l’ancien monde qui existe toujours ,ITEMS,La pyramide de Gizé est la seule des 7 merveilles de l’ancien monde qui existe toujours ,,,,,0,4,4,22,,,,,,,,,,,,,,,,,,,,,,,,,,,,,2024.0521003999747,2024.5614093999611,,,,,2004.5100413999753,2004.5100413999753,2004.5100413999753,0.014436600031331182,points,[0.025925925925925925],[-0.4046296296296296],[1],[0],[0],[19.535575399990194],['validation_reco'],,,,,MC6,002,2023-03-20_10h54.35.646,Expérimentation1_SOLO,2022.2.5,60.10894145280477,
Un attentat terroriste a eu lieu dans les métros Londonien en juillet 2005 ,DONNEES,Un attentat terroriste a eu lieu dans les métros Londonien en juillet 2005 ,,,,,0,5,5,5,,,,,,,,,,,,,,,,,,,,,,,,,,,,,2038.4522584999795,2038.952224800014,,,,,2024.5614093999611,2024.5614093999611,2024.5614093999611,0.014290199964307249,items,[0.025925925925925925],[-0.4046296296296296],[1],[0],[0],[13.88347529998282],['validation_reco'],,,,,MC6,002,2023-03-20_10h54.35.646,Expérimentation1_SOLO,2022.2.5,60.10894145280477,
La plus longue composition classique prendrait 639 ans à être interprétée  ,POINTS,La plus longue composition classique prendrait 639 ans à être interprétée  ,,,,,0,6,6,25,,,,,,,,,,,,,,,,,,,,,,,,,,,,,2055.9188298999798,2056.4272882000078,,,,,2038.952224800014,2038.952224800014,2038.952224800014,0.007765699992887676,faits,[0.025925925925925925],[-0.4046296296296296],[1],[0],[0],[16.957266099983826],['validation_reco'],,,,,MC6,002,2023-03-20_10h54.35.646,Expérimentation1_SOLO,2022.2.5,60.10894145280477,
Une personne brule plus de calories quand il dort que lorsqu’il regarde la télé  ,ITEMS,Une personne brule plus de calories quand il dort que lorsqu’il regarde la télé  ,,,,,0,7,7,20,,,,,,,,,,,,,,,,,,,,,,,,,,,,,2070.318974499998,2070.8191172999796,,,,,2056.4272882000078,2056.4272882000078,2056.4272882000078,0.014213799964636564,infos,[0.007407407407407408],[-0.4074074074074074],[1],[0],[0],[13.884135700005572],['validation_reco'],,,,,MC6,002,2023-03-20_10h54.35.646,Expérimentation1_SOLO,2022.2.5,60.10894145280477,
Les frites sont originaires de France et non de Belgique,INFOS,Les frites sont originaires de France et non de Belgique,,,,,0,8,8,12,,,,,,,,,,,,,,,,,,,,,,,,,,,,,2086.0523482999997,2086.5531324999756,,,,,2070.8191172999796,2070.8191172999796,2070.8191172999796,0.005404700001236051,infos,[-0.006481481481481481],[-0.40185185185185185],[1],[0],[0],[15.226720600039698],['validation_reco'],,,,,MC6,002,2023-03-20_10h54.35.646,Expérimentation1_SOLO,2022.2.5,60.10894145280477,
Les séparatistes Tchéchènes du Sud de la Russie ont pris en otage une école en septembre 2004 ,POINTS,Les séparatistes Tchéchènes du Sud de la Russie ont pris en otage une école en septembre 2004 ,,,,,0,9,9,24,,,,,,,,,,,,,,,,,,,,,,,,,,,,,2098.719289699977,2099.223235499987,,,,,2086.5531324999756,2086.5531324999756,2086.5531324999756,0.008638300001621246,faits,[-0.006481481481481481],[-0.40185185185185185],[1],[0],[0],[12.157228099997155],['validation_reco'],,,,,MC6,002,2023-03-20_10h54.35.646,Expérimentation1_SOLO,2022.2.5,60.10894145280477,
Les ongles incarnés sont héréditaires ,DONNEES,Les ongles incarnés sont héréditaires ,,,,,0,10,10,7,,,,,,,,,,,,,,,,,,,,,,,,,,,,,2103.1855214000097,2103.685645499965,,,,,2099.223235499987,2099.223235499987,2099.223235499987,0.006101999955717474,items,[-0.006481481481481481],[-0.40185185185185185],[1],[0],[0],[3.956178500025999],['validation_reco'],,,,,MC6,002,2023-03-20_10h54.35.646,Expérimentation1_SOLO,2022.2.5,60.10894145280477,
"Seulement 2 pays touchent 3 océans, les Etats-Unis et le Canada",FAITS,"Seulement 2 pays touchent 3 océans, les Etats-Unis et le Canada",,,,,0,11,11,4,,,,,,,,,,,,,,,,,,,,,,,,,,,,,2111.9024182999856,2112.4095113999792,,,,,2103.685645499965,2103.685645499965,2103.685645499965,0.0069005999830551445,points,[-0.012962962962962963],[-0.40555555555555556],[1],[0],[0],[8.20849819999421],['validation_reco'],,,,,MC6,002,2023-03-20_10h54.35.646,Expérimentation1_SOLO,2022.2.5,60.10894145280477,
La carte de visite d’Al Capone indiquait qu’il était vendeur de meuble d’occasion ,INFOS,La carte de visite d’Al Capone indiquait qu’il était vendeur de meuble d’occasion ,,,,,0,12,12,13,,,,,,,,,,,,,,,,,,,,,,,,,,,,,2120.6354918999714,2121.135651599965,,,,,2112.4095113999792,2112.4095113999792,2112.4095113999792,0.012916099978610873,Points,[-0.008333333333333333],[-0.39351851851851855],[1],[0],[0],[8.218507499957923],['validation_reco'],,,,,MC6,002,2023-03-20_10h54.35.646,Expérimentation1_SOLO,2022.2.5,60.10894145280477,
L’écriture chinoise comprend plus de 40 000 caractères  ,NOMS,L’écriture chinoise comprend plus de 40 000 caractères  ,,,,,0,13,13,18,,,,,,,,,,,,,,,,,,,,,,,,,,,,,2129.0357124999864,2129.541234000004,,,,,2121.135651599965,2121.135651599965,2121.135651599965,0.008337199978996068,Noms,[0.004629629629629629],[-0.39351851851851855],[1],[0],[0],[7.8914295000140555],['validation_reco'],,,,,MC6,002,2023-03-20_10h54.35.646,Expérimentation1_SOLO,2022.2.5,60.10894145280477,
L’Europe est le seul continent sans désert ,DONNEES,L’Europe est le seul continent sans désert ,,,,,0,14,14,8,,,,,,,,,,,,,,,,,,,,,,,,,,,,,2137.7855962999747,2138.2865853999974,,,,,2129.541234000004,2129.541234000004,2129.541234000004,0.010354499972891062,items,[0.016666666666666666],[-0.39166666666666666],[1],[0],[0],[8.238302800047677],['validation_reco'],,,,,MC6,002,2023-03-20_10h54.35.646,Expérimentation1_SOLO,2022.2.5,60.10894145280477,
On peut reproduire une clé grâce au son qu’elle émet lorsqu’on l’insère dans une serrure ,POINTS,On peut reproduire une clé grâce au son qu’elle émet lorsqu’on l’insère dans une serrure ,,,,,0,15,15,29,,,,,,,,,,,,,,,,,,,,,,,,,,,,,2149.8358227999997,2150.345689299982,,,,,2138.2865853999974,2138.2865853999974,2138.2865853999974,0.009186400042381138,infos,[0.025],[-0.4009259259259259],[1],[0],[0],[11.539028899976984],['validation_reco'],,,,,MC6,002,2023-03-20_10h54.35.646,Expérimentation1_SOLO,2022.2.5,60.10894145280477,
Une vache produit environ 200 000 bouteilles de lait dans sa vie  ,FAITS,Une vache produit environ 200 000 bouteilles de lait dans sa vie  ,,,,,0,16,16,2,,,,,,,,,,,,,,,,,,,,,,,,,,,,,2158.785607400001,2159.2961719000014,,,,,2150.345689299982,2150.345689299982,2150.345689299982,0.015594600001350045,items,[0.011111111111111112],[-0.40185185185185185],[1],[0],[0],[8.432818999979645],['validation_reco'],,,,,MC6,002,2023-03-20_10h54.35.646,Expérimentation1_SOLO,2022.2.5,60.10894145280477,
"Tout comme l’empreinte digitale, le cœur est propre à chaque individu et on peut l’identifier grâce à sa signature cardiaque ",NOMS,"Tout comme l’empreinte digitale, le cœur est propre à chaque individu et on peut l’identifier grâce à sa signature cardiaque ",,,,,0,17,17,30,,,,,,,,,,,,,,,,,,,,,,,,,,,,,2166.619154599961,2167.1225948999636,,,,,2159.2961719000014,2159.2961719000014,2159.2961719000014,0.01665760000469163,points,[0.012037037037037037],[-0.40185185185185185],[1],[0],[0],[7.31550419999985],['validation_reco'],,,,,MC6,002,2023-03-20_10h54.35.646,Expérimentation1_SOLO,2022.2.5,60.10894145280477,
La cacahuète est l’un des ingrédients de la dynamite  ,POINTS,La cacahuète est l’un des ingrédients de la dynamite  ,,,,,0,18,18,27,,,,,,,,,,,,,,,,,,,,,,,,,,,,,2196.735684000014,2197.2412690999918,,,,,2167.1225948999636,2167.1225948999636,2167.1225948999636,0.009113100008107722,points,[0.012037037037037037],[-0.40185185185185185],[1],[0],[0],[29.605668300006073],['validation_reco'],,,,,MC6,002,2023-03-20_10h54.35.646,Expérimentation1_SOLO,2022.2.5,60.10894145280477,
Une personne perdra environ 18 kilos de peau durant toute sa vie  ,POINTS,Une personne perdra environ 18 kilos de peau durant toute sa vie  ,,,,,0,19,19,26,,,,,,,,,,,,,,,,,,,,,,,,,,,,,2206.085947899963,2206.5868098000064,,,,,2197.2412690999918,2197.2412690999918,2197.2412690999918,0.010771900007966906,faits,[0.003703703703703704],[-0.4083333333333333],[1],[0],[0],[8.837337700009812],['validation_reco'],,,,,MC6,002,2023-03-20_10h54.35.646,Expérimentation1_SOLO,2022.2.5,60.10894145280477,
La république dominicaine est le seul pays qui possède un drapeau contenant une bible ,NOMS,La république dominicaine est le seul pays qui possède un drapeau contenant une bible ,,,,,0,20,20,15,,,,,,,,,,,,,,,,,,,,,,,,,,,,,2231.5525820999756,2232.052813199989,,,,,2206.5868098000064,2206.5868098000064,2206.5868098000064,0.009487800009083003,Noms,"[-0.013888888888888888, -0.012962962962962963]","[-0.4148148148148148, -0.39166666666666666]","[1, 1]","[0, 0]","[0, 0]","[24.122811499983072, 24.95588520000456]",['validation_reco'],,,,,MC6,002,2023-03-20_10h54.35.646,Expérimentation1_SOLO,2022.2.5,60.10894145280477,
Les élastiques sont plus longs quand ils sont très froids/réfrigérés ,INFOS,Les élastiques sont plus longs quand ils sont très froids/réfrigérés ,,,,,0,21,21,11,,,,,,,,,,,,,,,,,,,,,,,,,,,,,2238.8024585999665,2239.303057399986,,,,,2232.052813199989,2232.052813199989,2232.052813199989,0.008248700003605336,infos,[-0.004629629629629629],[-0.3972222222222222],[1],[0],[0],[6.740451799996663],['validation_reco'],,,,,MC6,002,2023-03-20_10h54.35.646,Expérimentation1_SOLO,2022.2.5,60.10894145280477,
Il y a en moyenne 178 graines de sésames sur le pain du Big Mac de McDonald  ,NOMS,Il y a en moyenne 178 graines de sésames sur le pain du Big Mac de McDonald  ,,,,,0,22,22,17,,,,,,,,,,,,,,,,,,,,,,,,,,,,,2244.0024547000066,2244.502517200017,,,,,2239.303057399986,2239.303057399986,2239.303057399986,0.007605799997691065,items,[-0.006481481481481481],[-0.3925925925925926],[1],[0],[0],[4.690658500010613],['validation_reco'],,,,,MC6,002,2023-03-20_10h54.35.646,Expérimentation1_SOLO,2022.2.5,60.10894145280477,
Le cœur d’une crevette est dans sa tête  ,POINTS,Le cœur d’une crevette est dans sa tête  ,,,,,0,23,23,28,,,,,,,,,,,,,,,,,,,,,,,,,,,,,2248.5860512999934,2249.0862861999776,,,,,2244.502517200017,2244.502517200017,2244.502517200017,0.006653800024650991,faits,[-0.012962962962962963],[-0.4027777777777778],[1],[0],[0],[4.075817200005986],['validation_reco'],,,,,MC6,002,2023-03-20_10h54.35.646,Expérimentation1_SOLO,2022.2.5,60.10894145280477,
Les concerts Live 8 ont pris place dans les pays du G8 et en Afrique du Sud en juillet 2005 ,NOMS,Les concerts Live 8 ont pris place dans les pays du G8 et en Afrique du Sud en juillet 2005 ,,,,,0,24,24,16,,,,,,,,,,,,,,,,,,,,,,,,,,,,,2280.41949890001,2280.9198544999817,,,,,2249.0862861999776,2249.0862861999776,2249.0862861999776,0.007677999965380877,infos,[-0.017592592592592594],[-0.40925925925925927],[1],[0],[0],[31.32504800002789],['validation_reco'],,,,,MC6,002,2023-03-20_10h54.35.646,Expérimentation1_SOLO,2022.2.5,60.10894145280477,
La navette Spatiale Columbia s’est désintégrée durant son entrée dans l’atmosphère au-dessus du Texas en février 2003 ,DONNEES,La navette Spatiale Columbia s’est désintégrée durant son entrée dans l’atmosphère au-dessus du Texas en février 2003 ,,,,,0,25,25,9,,,,,,,,,,,,,,,,,,,,,,,,,,,,,2288.186284800002,2288.6932161999866,,,,,2280.9198544999817,2280.9198544999817,2280.9198544999817,0.007357200025580823,items,[-0.017592592592592594],[-0.40925925925925927],[1],[0],[0],[7.2574760999996215],['validation_reco'],,,,,MC6,002,2023-03-20_10h54.35.646,Expérimentation1_SOLO,2022.2.5,60.10894145280477,
L’œil d’une autruche est plus gros que son cerveau  ,ITEMS,L’œil d’une autruche est plus gros que son cerveau  ,,,,,0,26,26,19,,,,,,,,,,,,,,,,,,,,,,,,,,,,,2294.0862300000153,2294.5928398999968,,,,,2288.6932161999866,2288.6932161999866,2288.6932161999866,0.013590399990789592,faits,"[-0.008333333333333333, 0.025925925925925925]","[-0.412962962962963, -0.4]","[1, 1]","[0, 0]","[0, 0]","[4.201705200015567, 5.385184700018726]",['validation_reco'],,,,,MC6,002,2023-03-20_10h54.35.646,Expérimentation1_SOLO,2022.2.5,60.10894145280477,
Le tsunami dévastateur en Asie s’est produit en décembre 2004 ,FAITS,Le tsunami dévastateur en Asie s’est produit en décembre 2004 ,,,,,0,27,27,1,,,,,,,,,,,,,,,,,,,,,,,,,,,,,2303.2526081000105,2303.752901699976,,,,,2294.5928398999968,2294.5928398999968,2294.5928398999968,0.011862799990922213,faits,[-0.000925925925925926],[-0.39351851851851855],[1],[0],[0],[8.654233899957035],['validation_reco'],,,,,MC6,002,2023-03-20_10h54.35.646,Expérimentation1_SOLO,2022.2.5,60.10894145280477,
La raie manta peut atteindre 9 mètres de long pour environ 2 tonnes ,INFOS,La raie manta peut atteindre 9 mètres de long pour environ 2 tonnes ,,,,,0,28,28,31,,,,,,,,,,,,,,,,,,,,,,,,,,,,,2313.8194211999653,2314.3245982999797,,,,,2303.752901699976,2303.752901699976,2303.752901699976,0.006987000000663102,points,"[-0.018518518518518517, -0.024074074074074074]","[-0.4148148148148148, -0.38981481481481484]","[1, 1]","[0, 0]","[0, 0]","[9.52432950004004, 10.05777549999766]",['validation_reco'],,,,,MC6,002,2023-03-20_10h54.35.646,Expérimentation1_SOLO,2022.2.5,60.10894145280477,
Les oiseaux bleus ne peuvent pas voir la couleur bleue  ,FAITS,Les oiseaux bleus ne peuvent pas voir la couleur bleue  ,,,,,0,29,29,3,,,,,,,,,,,,,,,,,,,,,,,,,,,,,2320.636158499983,2321.14098929998,,,,,2314.3245982999797,2314.3245982999797,2314.3245982999797,0.011309700028505176,items,[-0.022222222222222223],[-0.3990740740740741],[1],[0],[0],[6.303929399990011],['validation_reco'],,,,,MC6,002,2023-03-20_10h54.35.646,Expérimentation1_SOLO,2022.2.5,60.10894145280477,
Il y a eu 25 présidents Français ,DONNEES,Il y a eu 25 présidents Français ,,,,,0,30,30,6,,,,,,,,,,,,,,,,,,,,,,,,,,,,,2325.152967699978,2325.6637907999684,,,,,2321.14098929998,2321.14098929998,2321.14098929998,0.009867699991445988,faits,[0.009259259259259259],[-0.39166666666666666],[1],[0],[0],[4.004836499982048],['validation_reco'],,,,,MC6,002,2023-03-20_10h54.35.646,Expérimentation1_SOLO,2022.2.5,60.10894145280477,
Le Groenland est l’île la plus grande du monde par sa superficie  ,FAITS,Le Groenland est l’île la plus grande du monde par sa superficie  ,,,,,0,31,31,0,,,,,,,,,,,,,,,,,,,,,,,,,,,,,2335.6861986999866,2336.186564499978,,,,,2325.6637907999684,2325.6637907999684,2325.6637907999684,0.01767969998763874,infos,[0.005555555555555556],[-0.4111111111111111],[1],[0],[0],[10.016425499983598],['validation_reco'],,,,,MC6,002,2023-03-20_10h54.35.646,Expérimentation1_SOLO,2022.2.5,60.10894145280477,
,,,,,,,,,,,,,,,,,,,,,,,,,,,,,,,,,,,,,,,,,,,,,,,,,,,,,,,,,2336.186564499978,2336.186564499978,i,469.41627320001135,MC6,002,2023-03-20_10h54.35.646,Expérimentation1_SOLO,2022.2.5,60.10894145280477,
